File: Suppl data/Spectra/XRD spectra/MS01B.txt
MS01B
Wavelength = 1.54059
5	14.00
5.0613	5.00
5.1226	9.00
5.1838	6.00
5.2451	9.00
5.3064	10.00
5.3676	8.00
5.4289	9.00
5.4902	13.00
5.5515	12.00
5.6127	5.00
5.674	7.00
5.7353	10.00
5.7965	9.00
5.8578	11.00
5.9191	9.00
5.9804	5.00
6.0416	11.00
6.1029	14.00
6.1642	7.00
6.2255	6.00
6.2867	10.00
6.348	9.00
6.4093	7.00
6.4705	13.00
6.5318	23.00
6.5931	12.00
6.6544	9.00
6.7156	11.00
6.7769	7.00
6.8382	5.00
6.8995	17.00
6.9607	14.00
7.022	10.00
7.0833	6.00
7.1445	11.00
7.2058	14.00
7.2671	7.00
7.3284	6.00
7.3896	11.00
7.4509	12.00
7.5122	14.00
7.5735	6.00
7.6347	4.00
7.696	11.00
7.7573	6.00
7.8185	14.00
7.8798	12.00
7.9411	11.00
8.0024	7.00
8.0636	6.00
8.1249	9.00
8.1862	7.00
8.2475	11.00
8.3087	19.00
8.37	10.00
8.4313	10.00
8.4925	17.00
8.5538	16.00
8.6151	8.00
8.6764	10.00
8.7376	8.00
8.7989	12.00
8.8602	14.00
8.9214	16.00
8.9827	15.00
9.044	9.00
9.1053	13.00
9.1665	7.00
9.2278	13.00
9.2891	15.00
9.3504	10.00
9.4116	11.00
9.4729	8.00
9.5342	12.00
9.5954	9.00
9.6567	14.00
9.718	11.00
9.7793	16.00
9.8405	14.00
9.9018	17.00
9.9631	13.00
10.0244	18.00
10.0856	7.00
10.1469	15.00
10.2082	11.00
10.2694	18.00
10.3307	13.00
10.392	16.00
10.4533	9.00
10.5145	16.00
10.5758	12.00
10.6371	13.00
10.6984	15.00
10.7596	12.00
10.8209	16.00
10.8822	20.00
10.9434	11.00
11.0047	20.00
11.066	30.00
11.1273	23.00
11.1885	15.00
11.2498	20.00
11.3111	22.00
11.3724	23.00
11.4336	20.00
11.4949	23.00
11.5562	32.00
11.6174	35.00
11.6787	25.00
11.74	37.00
11.8013	32.00
11.8625	46.00
11.9238	63.00
11.9851	76.00
12.0464	132.00
12.1076	248.00
12.1689	609.00
12.2302	238.00
12.2914	92.00
12.3527	94.00
12.414	86.00
12.4753	61.00
12.5365	44.00
12.5978	42.00
12.6591	34.00
12.7203	31.00
12.7816	33.00
12.8429	20.00
12.9042	22.00
12.9654	23.00
13.0267	16.00
13.088	16.00
13.1493	18.00
13.2105	19.00
13.2718	16.00
13.3331	15.00
13.3943	17.00
13.4556	16.00
13.5169	17.00
13.5782	23.00
13.6394	19.00
13.7007	21.00
13.762	18.00
13.8233	23.00
13.8845	19.00
13.9458	12.00
14.0071	14.00
14.0683	12.00
14.1296	20.00
14.1909	18.00
14.2522	10.00
14.3134	16.00
14.3747	32.00
14.436	16.00
14.4973	11.00
14.5585	12.00
14.6198	17.00
14.6811	13.00
14.7423	18.00
14.8036	20.00
14.8649	15.00
14.9262	15.00
14.9874	15.00
15.0487	15.00
15.11	15.00
15.1713	13.00
15.2325	17.00
15.2938	17.00
15.3551	22.00
15.4163	10.00
15.4776	19.00
15.5389	16.00
15.6002	16.00
15.6614	14.00
15.7227	15.00
15.784	11.00
15.8452	15.00
15.9065	13.00
15.9678	19.00
16.0291	16.00
16.0903	11.00
16.1516	15.00
16.2129	17.00
16.2742	9.00
16.3354	18.00
16.3967	20.00
16.458	15.00
16.5192	18.00
16.5805	19.00
16.6418	14.00
16.7031	18.00
16.7643	16.00
16.8256	20.00
16.8869	16.00
16.9482	13.00
17.0094	26.00
17.0707	14.00
17.132	16.00
17.1932	9.00
17.2545	14.00
17.3158	75.00
17.3771	54.00
17.4383	23.00
17.4996	13.00
17.5609	11.00
17.6222	9.00
17.6834	15.00
17.7447	10.00
17.806	11.00
17.8672	11.00
17.9285	8.00
17.9898	13.00
18.0511	16.00
18.1123	21.00
18.1736	11.00
18.2349	14.00
18.2962	21.00
18.3574	13.00
18.4187	12.00
18.48	8.00
18.5412	9.00
18.6025	9.00
18.6638	12.00
18.7251	23.00
18.7863	20.00
18.8476	17.00
18.9089	27.00
18.9702	32.00
19.0314	33.00
19.0927	29.00
19.154	32.00
19.2152	42.00
19.2765	41.00
19.3378	52.00
19.3991	37.00
19.4603	39.00
19.5216	33.00
19.5829	42.00
19.6441	31.00
19.7054	31.00
19.7667	29.00
19.828	27.00
19.8892	35.00
19.9505	32.00
20.0118	27.00
20.0731	32.00
20.1343	21.00
20.1956	28.00
20.2569	31.00
20.3181	22.00
20.3794	29.00
20.4407	18.00
20.502	30.00
20.5632	36.00
20.6245	26.00
20.6858	27.00
20.7471	16.00
20.8083	24.00
20.8696	30.00
20.9309	45.00
20.9921	35.00
21.0534	37.00
21.1147	33.00
21.176	38.00
21.2372	27.00
21.2985	30.00
21.3598	28.00
21.4211	30.00
21.4823	24.00
21.5436	27.00
21.6049	37.00
21.6661	29.00
21.7274	32.00
21.7887	26.00
21.85	28.00
21.9112	19.00
21.9725	35.00
22.0338	25.00
22.0951	18.00
22.1563	36.00
22.2176	39.00
22.2789	25.00
22.3401	28.00
22.4014	35.00
22.4627	25.00
22.524	26.00
22.5852	27.00
22.6465	32.00
22.7078	37.00
22.769	70.00
22.8303	177.00
22.8916	129.00
22.9529	42.00
23.0141	38.00
23.0754	34.00
23.1367	27.00
23.198	30.00
23.2592	33.00
23.3205	26.00
23.3818	30.00
23.443	39.00
23.5043	27.00
23.5656	43.00
23.6269	45.00
23.6881	37.00
23.7494	53.00
23.8107	84.00
23.872	70.00
23.9332	68.00
23.9945	55.00
24.0558	47.00
24.117	61.00
24.1783	85.00
24.2396	94.00
24.3009	110.00
24.3621	133.00
24.4234	176.00
24.4847	264.00
24.546	406.00
24.6072	451.00
24.6685	412.00
24.7298	226.00
24.791	145.00
24.8523	114.00
24.9136	107.00
24.9749	74.00
25.0361	73.00
25.0974	62.00
25.1587	66.00
25.22	42.00
25.2812	55.00
25.3425	69.00
25.4038	122.00
25.465	87.00
25.5263	85.00
25.5876	80.00
25.6489	34.00
25.7101	43.00
25.7714	45.00
25.8327	26.00
25.894	27.00
25.9552	23.00
26.0165	34.00
26.0778	29.00
26.139	30.00
26.2003	25.00
26.2616	22.00
26.3229	27.00
26.3841	29.00
26.4454	25.00
26.5067	26.00
26.5679	34.00
26.6292	37.00
26.6905	31.00
26.7518	23.00
26.813	19.00
26.8743	25.00
26.9356	22.00
26.9969	25.00
27.0581	21.00
27.1194	24.00
27.1807	27.00
27.2419	16.00
27.3032	24.00
27.3645	20.00
27.4258	22.00
27.487	28.00
27.5483	48.00
27.6096	31.00
27.6709	25.00
27.7321	15.00
27.7934	19.00
27.8547	21.00
27.9159	22.00
27.9772	20.00
28.0385	32.00
28.0998	21.00
28.161	21.00
28.2223	31.00
28.2836	16.00
28.3449	23.00
28.4061	16.00
28.4674	14.00
28.5287	21.00
28.5899	15.00
28.6512	18.00
28.7125	25.00
28.7738	21.00
28.835	25.00
28.8963	16.00
28.9576	20.00
29.0189	18.00
29.0801	15.00
29.1414	19.00
29.2027	12.00
29.2639	24.00
29.3252	18.00
29.3865	25.00
29.4478	13.00
29.509	22.00
29.5703	36.00
29.6316	39.00
29.6928	45.00
29.7541	63.00
29.8154	62.00
29.8767	62.00
29.9379	35.00
29.9992	44.00
30.0605	48.00
30.1218	50.00
30.183	44.00
30.2443	39.00
30.3056	26.00
30.3668	32.00
30.4281	20.00
30.4894	19.00
30.5507	18.00
30.6119	19.00
30.6732	30.00
30.7345	26.00
30.7958	30.00
30.857	32.00
30.9183	26.00
30.9796	29.00
31.0408	18.00
31.1021	14.00
31.1634	14.00
31.2247	30.00
31.2859	27.00
31.3472	27.00
31.4085	23.00
31.4698	23.00
31.531	21.00
31.5923	16.00
31.6536	25.00
31.7148	18.00
31.7761	24.00
31.8374	24.00
31.8987	26.00
31.9599	31.00
32.0212	17.00
32.0825	37.00
32.1438	49.00
32.205	80.00
32.2663	314.00
32.3276	142.00
32.3888	63.00
32.4501	26.00
32.5114	32.00
32.5727	15.00
32.6339	28.00
32.6952	21.00
32.7565	24.00
32.8178	19.00
32.879	26.00
32.9403	22.00
33.0016	29.00
33.0628	33.00
33.1241	19.00
33.1854	25.00
33.2467	23.00
33.3079	21.00
33.3692	32.00
33.4305	26.00
33.4917	19.00
33.553	38.00
33.6143	42.00
33.6756	47.00
33.7368	36.00
33.7981	44.00
33.8594	31.00
33.9207	39.00
33.9819	26.00
34.0432	41.00
34.1045	48.00
34.1657	42.00
34.227	48.00
34.2883	55.00
34.3496	34.00
34.4108	67.00
34.4721	59.00
34.5334	59.00
34.5947	66.00
34.6559	66.00
34.7172	69.00
34.7785	72.00
34.8397	64.00
34.901	81.00
34.9623	78.00
35.0236	75.00
35.0848	75.00
35.1461	84.00
35.2074	120.00
35.2687	106.00
35.3299	178.00
35.3912	284.00
35.4525	441.00
35.5137	448.00
35.575	407.00
35.6363	582.00
35.6976	270.00
35.7588	281.00
35.8201	155.00
35.8814	137.00
35.9427	99.00
36.0039	91.00
36.0652	83.00
36.1265	83.00
36.1877	88.00
36.249	90.00
36.3103	91.00
36.3716	101.00
36.4328	300.00
36.4941	228.00
36.5554	283.00
36.6166	121.00
36.6779	113.00
36.7392	89.00
36.8005	74.00
36.8617	95.00
36.923	79.00
36.9843	76.00
37.0456	79.00
37.1068	93.00
37.1681	88.00
37.2294	65.00
37.2906	66.00
37.3519	62.00
37.4132	72.00
37.4745	72.00
37.5357	47.00
37.597	58.00
37.6583	53.00
37.7196	76.00
37.7808	46.00
37.8421	52.00
37.9034	48.00
37.9646	35.00
38.0259	35.00
38.0872	37.00
38.1485	38.00
38.2097	76.00
38.271	58.00
38.3323	68.00
38.3936	50.00
38.4548	42.00
38.5161	34.00
38.5774	38.00
38.6386	48.00
38.6999	43.00
38.7612	72.00
38.8225	45.00
38.8837	64.00
38.945	37.00
39.0063	37.00
39.0676	41.00
39.1288	43.00
39.1901	35.00
39.2514	35.00
39.3126	26.00
39.3739	52.00
39.4352	45.00
39.4965	41.00
39.5577	68.00
39.619	241.00
39.6803	99.00
39.7416	132.00
39.8028	35.00
39.8641	46.00
39.9254	77.00
39.9866	185.00
40.0479	77.00
40.1092	104.00
40.1705	51.00
40.2317	43.00
40.293	35.00
40.3543	45.00
40.4155	50.00
40.4768	54.00
40.5381	51.00
40.5994	48.00
40.6606	48.00
40.7219	43.00
40.7832	51.00
40.8445	47.00
40.9057	48.00
40.967	46.00
41.0283	47.00
41.0895	44.00
41.1508	62.00
41.2121	56.00
41.2734	59.00
41.3346	60.00
41.3959	74.00
41.4572	101.00
41.5185	96.00
41.5797	120.00
41.641	100.00
41.7023	191.00
41.7635	127.00
41.8248	151.00
41.8861	120.00
41.9474	123.00
42.0086	117.00
42.0699	106.00
42.1312	99.00
42.1925	62.00
42.2537	51.00
42.315	62.00
42.3763	52.00
42.4375	53.00
42.4988	38.00
42.5601	37.00
42.6214	49.00
42.6826	34.00
42.7439	47.00
42.8052	50.00
42.8665	45.00
42.9277	49.00
42.989	53.00
43.0503	63.00
43.1115	67.00
43.1728	62.00
43.2341	59.00
43.2954	54.00
43.3566	44.00
43.4179	22.00
43.4792	41.00
43.5404	32.00
43.6017	42.00
43.663	31.00
43.7243	25.00
43.7855	27.00
43.8468	16.00
43.9081	35.00
43.9694	27.00
44.0306	33.00
44.0919	30.00
44.1532	26.00
44.2144	23.00
44.2757	38.00
44.337	47.00
44.3983	41.00
44.4595	45.00
44.5208	36.00
44.5821	48.00
44.6434	31.00
44.7046	25.00
44.7659	27.00
44.8272	27.00
44.8884	32.00
44.9497	33.00
45.011	28.00
45.0723	26.00
45.1335	36.00
45.1948	35.00
45.2561	18.00
45.3174	25.00
45.3786	32.00
45.4399	29.00
45.5012	20.00
45.5624	17.00
45.6237	25.00
45.685	22.00
45.7463	27.00
45.8075	28.00
45.8688	32.00
45.9301	25.00
45.9914	25.00
46.0526	28.00
46.1139	32.00
46.1752	23.00
46.2364	27.00
46.2977	28.00
46.359	37.00
46.4203	37.00
46.4815	38.00
46.5428	24.00
46.6041	36.00
46.6654	42.00
46.7266	36.00
46.7879	34.00
46.8492	29.00
46.9104	19.00
46.9717	34.00
47.033	27.00
47.0943	40.00
47.1555	18.00
47.2168	33.00
47.2781	27.00
47.3393	26.00
47.4006	22.00
47.4619	25.00
47.5232	27.00
47.5844	20.00
47.6457	28.00
47.707	25.00
47.7683	18.00
47.8295	18.00
47.8908	27.00
47.9521	27.00
48.0133	46.00
48.0746	35.00
48.1359	35.00
48.1972	37.00
48.2584	30.00
48.3197	28.00
48.381	65.00
48.4423	36.00
48.5035	62.00
48.5648	37.00
48.6261	33.00
48.6873	35.00
48.7486	37.00
48.8099	43.00
48.8712	40.00
48.9324	35.00
48.9937	39.00
49.055	38.00
49.1163	38.00
49.1775	38.00
49.2388	35.00
49.3001	49.00
49.3613	56.00
49.4226	44.00
49.4839	64.00
49.5452	62.00
49.6064	61.00
49.6677	78.00
49.729	48.00
49.7903	67.00
49.8515	61.00
49.9128	45.00
49.9741	51.00
50.0353	60.00
50.0966	54.00
50.1579	69.00
50.2192	68.00
50.2804	85.00
50.3417	57.00
50.403	54.00
50.4642	52.00
50.5255	46.00
50.5868	39.00
50.6481	51.00
50.7093	46.00
50.7706	50.00
50.8319	49.00
50.8932	76.00
50.9544	42.00
51.0157	67.00
51.077	50.00
51.1382	55.00
51.1995	69.00
51.2608	65.00
51.3221	70.00
51.3833	72.00
51.4446	62.00
51.5059	53.00
51.5672	59.00
51.6284	34.00
51.6897	45.00
51.751	43.00
51.8122	42.00
51.8735	47.00
51.9348	61.00
51.9961	49.00
52.0573	83.00
52.1186	145.00
52.1799	298.00
52.2412	112.00
52.3024	206.00
52.3637	110.00
52.425	106.00
52.4862	147.00
52.5475	82.00
52.6088	108.00
52.6701	81.00
52.7313	79.00
52.7926	65.00
52.8539	70.00
52.9152	68.00
52.9764	70.00
53.0377	57.00
53.099	56.00
53.1602	45.00
53.2215	48.00
53.2828	42.00
53.3441	59.00
53.4053	65.00
53.4666	48.00
53.5279	55.00
53.5892	55.00
53.6504	61.00
53.7117	56.00
53.773	49.00
53.8342	34.00
53.8955	50.00
53.9568	35.00
54.0181	46.00
54.0793	47.00
54.1406	43.00
54.2019	38.00
54.2631	45.00
54.3244	38.00
54.3857	40.00
54.447	32.00
54.5082	29.00
54.5695	40.00
54.6308	54.00
54.6921	34.00
54.7533	45.00
54.8146	119.00
54.8759	60.00
54.9371	56.00
54.9984	45.00
55.0597	39.00
55.121	32.00
55.1822	51.00
55.2435	48.00
55.3048	43.00
55.3661	38.00
55.4273	36.00
55.4886	41.00
55.5499	23.00
55.6111	38.00
55.6724	40.00
55.7337	34.00
55.795	46.00
55.8562	42.00
55.9175	38.00
55.9788	71.00
56.0401	140.00
56.1013	60.00
56.1626	65.00
56.2239	60.00
56.2851	39.00
56.3464	54.00
56.4077	39.00
56.469	39.00
56.5302	39.00
56.5915	47.00
56.6528	61.00
56.7141	112.00
56.7753	84.00
56.8366	82.00
56.8979	135.00
56.9591	78.00
57.0204	78.00
57.0817	71.00
57.143	64.00
57.2042	63.00
57.2655	50.00
57.3268	52.00
57.388	50.00
57.4493	46.00
57.5106	37.00
57.5719	33.00
57.6331	27.00
57.6944	44.00
57.7557	40.00
57.817	46.00
57.8782	62.00
57.9395	45.00
58.0008	57.00
58.062	33.00
58.1233	40.00
58.1846	42.00
58.2459	52.00
58.3071	41.00
58.3684	49.00
58.4297	44.00
58.491	56.00
58.5522	73.00
58.6135	69.00
58.6748	55.00
58.736	85.00
58.7973	106.00
58.8586	81.00
58.9199	90.00
58.9811	156.00
59.0424	125.00
59.1037	100.00
59.165	130.00
59.2262	99.00
59.2875	88.00
59.3488	80.00
59.41	82.00
59.4713	89.00
59.5326	74.00
59.5939	71.00
59.6551	82.00
59.7164	102.00
59.7777	97.00
59.839	92.00
59.9002	140.00
59.9615	167.00
60.0228	135.00
60.084	137.00
60.1453	148.00
60.2066	157.00
60.2679	129.00
60.3291	113.00
60.3904	113.00
60.4517	107.00
60.513	106.00
60.5742	119.00
60.6355	108.00
60.6968	93.00
60.758	105.00
60.8193	89.00
60.8806	93.00
60.9419	117.00
61.0031	127.00
61.0644	99.00
61.1257	102.00
61.1869	100.00
61.2482	101.00
61.3095	86.00
61.3708	100.00
61.432	113.00
61.4933	135.00
61.5546	104.00
61.6159	100.00
61.6771	128.00
61.7384	101.00
61.7997	105.00
61.8609	217.00
61.9222	96.00
61.9835	123.00
62.0448	155.00
62.106	93.00
62.1673	76.00
62.2286	64.00
62.2899	78.00
62.3511	83.00
62.4124	76.00
62.4737	107.00
62.5349	128.00
62.5962	204.00
62.6575	307.00
62.7188	150.00
62.78	174.00
62.8413	171.00
62.9026	77.00
62.9639	62.00
63.0251	72.00
63.0864	56.00
63.1477	58.00
63.2089	44.00
63.2702	47.00
63.3315	53.00
63.3928	76.00
63.454	52.00
63.5153	53.00
63.5766	56.00
63.6379	43.00
63.6991	46.00
63.7604	50.00
63.8217	49.00
63.8829	70.00
63.9442	44.00
64.0055	43.00
64.0668	49.00
64.128	55.00
64.1893	75.00
64.2506	52.00
64.3118	55.00
64.3731	44.00
64.4344	41.00
64.4957	42.00
64.5569	41.00
64.6182	47.00
64.6795	70.00
64.7408	46.00
64.802	51.00
64.8633	45.00
64.9246	56.00
64.9858	48.00
65.0471	38.00
65.1084	27.00
65.1697	43.00
65.2309	33.00
65.2922	36.00
65.3535	33.00
65.4148	36.00
65.476	49.00
65.5373	34.00
65.5986	42.00
65.6598	38.00
65.7211	45.00
65.7824	46.00
65.8437	50.00
65.9049	45.00
65.9662	39.00
66.0275	36.00
66.0888	45.00
66.15	51.00
66.2113	40.00
66.2726	33.00
66.3338	33.00
66.3951	30.00
66.4564	35.00
66.5177	37.00
66.5789	42.00
66.6402	55.00
66.7015	35.00
66.7628	66.00
66.824	42.00
66.8853	73.00
66.9466	105.00
67.0078	71.00
67.0691	67.00
67.1304	68.00
67.1917	46.00
67.2529	60.00
67.3142	82.00
67.3755	49.00
67.4368	44.00
67.498	62.00
67.5593	35.00
67.6206	56.00
67.6818	39.00
67.7431	34.00
67.8044	30.00
67.8657	37.00
67.9269	31.00
67.9882	42.00
68.0495	33.00
68.1107	32.00
68.172	27.00
68.2333	28.00
68.2946	36.00
68.3558	39.00
68.4171	35.00
68.4784	40.00
68.5397	36.00
68.6009	25.00
68.6622	31.00
68.7235	41.00
68.7847	46.00
68.846	29.00
68.9073	32.00
68.9686	22.00
69.0298	27.00
69.0911	30.00
69.1524	32.00
69.2137	52.00
69.2749	39.00
69.3362	69.00
69.3975	135.00
69.4587	71.00
69.52	46.00
69.5813	79.00
69.6426	79.00
69.7038	51.00
69.7651	48.00
69.8264	52.00
69.8877	45.00
69.9489	49.00
70.0102	45.00