File: Suppl data/Spectra/XRD spectra/MS02BRED.txt
MS02BED
Wavelength = 1.54059
5	5.00
5.0613	8.00
5.1226	7.00
5.1838	9.00
5.2451	8.00
5.3064	6.00
5.3676	7.00
5.4289	11.00
5.4902	5.00
5.5515	3.00
5.6127	6.00
5.674	8.00
5.7353	8.00
5.7965	10.00
5.8578	8.00
5.9191	9.00
5.9804	12.00
6.0416	8.00
6.1029	13.00
6.1642	10.00
6.2255	8.00
6.2867	10.00
6.348	8.00
6.4093	12.00
6.4705	8.00
6.5318	12.00
6.5931	5.00
6.6544	10.00
6.7156	6.00
6.7769	10.00
6.8382	4.00
6.8995	5.00
6.9607	7.00
7.022	9.00
7.0833	10.00
7.1445	10.00
7.2058	9.00
7.2671	10.00
7.3284	16.00
7.3896	10.00
7.4509	9.00
7.5122	6.00
7.5735	10.00
7.6347	8.00
7.696	5.00
7.7573	10.00
7.8185	7.00
7.8798	5.00
7.9411	7.00
8.0024	7.00
8.0636	10.00
8.1249	10.00
8.1862	5.00
8.2475	10.00
8.3087	8.00
8.37	11.00
8.4313	8.00
8.4925	13.00
8.5538	12.00
8.6151	9.00
8.6764	11.00
8.7376	8.00
8.7989	12.00
8.8602	11.00
8.9214	8.00
8.9827	13.00
9.044	17.00
9.1053	12.00
9.1665	10.00
9.2278	13.00
9.2891	9.00
9.3504	11.00
9.4116	13.00
9.4729	10.00
9.5342	9.00
9.5954	9.00
9.6567	14.00
9.718	13.00
9.7793	14.00
9.8405	4.00
9.9018	6.00
9.9631	6.00
10.0244	10.00
10.0856	7.00
10.1469	15.00
10.2082	9.00
10.2694	5.00
10.3307	15.00
10.392	11.00
10.4533	13.00
10.5145	13.00
10.5758	14.00
10.6371	13.00
10.6984	13.00
10.7596	11.00
10.8209	12.00
10.8822	10.00
10.9434	20.00
11.0047	15.00
11.066	21.00
11.1273	13.00
11.1885	10.00
11.2498	11.00
11.3111	16.00
11.3724	10.00
11.4336	9.00
11.4949	13.00
11.5562	16.00
11.6174	20.00
11.6787	14.00
11.74	13.00
11.8013	17.00
11.8625	11.00
11.9238	17.00
11.9851	13.00
12.0464	22.00
12.1076	16.00
12.1689	15.00
12.2302	16.00
12.2914	21.00
12.3527	18.00
12.414	10.00
12.4753	17.00
12.5365	17.00
12.5978	10.00
12.6591	13.00
12.7203	19.00
12.7816	19.00
12.8429	19.00
12.9042	19.00
12.9654	15.00
13.0267	15.00
13.088	10.00
13.1493	14.00
13.2105	13.00
13.2718	22.00
13.3331	17.00
13.3943	17.00
13.4556	11.00
13.5169	7.00
13.5782	12.00
13.6394	14.00
13.7007	11.00
13.762	15.00
13.8233	14.00
13.8845	11.00
13.9458	18.00
14.0071	13.00
14.0683	11.00
14.1296	17.00
14.1909	23.00
14.2522	11.00
14.3134	8.00
14.3747	13.00
14.436	14.00
14.4973	10.00
14.5585	15.00
14.6198	18.00
14.6811	12.00
14.7423	12.00
14.8036	11.00
14.8649	13.00
14.9262	16.00
14.9874	14.00
15.0487	20.00
15.11	11.00
15.1713	10.00
15.2325	14.00
15.2938	12.00
15.3551	22.00
15.4163	13.00
15.4776	16.00
15.5389	8.00
15.6002	17.00
15.6614	14.00
15.7227	13.00
15.784	13.00
15.8452	12.00
15.9065	7.00
15.9678	11.00
16.0291	9.00
16.0903	17.00
16.1516	13.00
16.2129	19.00
16.2742	12.00
16.3354	11.00
16.3967	16.00
16.458	17.00
16.5192	13.00
16.5805	11.00
16.6418	11.00
16.7031	16.00
16.7643	11.00
16.8256	14.00
16.8869	9.00
16.9482	11.00
17.0094	13.00
17.0707	22.00
17.132	18.00
17.1932	18.00
17.2545	32.00
17.3158	74.00
17.3771	115.00
17.4383	51.00
17.4996	38.00
17.5609	22.00
17.6222	15.00
17.6834	13.00
17.7447	17.00
17.806	11.00
17.8672	8.00
17.9285	10.00
17.9898	9.00
18.0511	7.00
18.1123	18.00
18.1736	12.00
18.2349	12.00
18.2962	8.00
18.3574	17.00
18.4187	15.00
18.48	13.00
18.5412	17.00
18.6025	15.00
18.6638	10.00
18.7251	13.00
18.7863	9.00
18.8476	5.00
18.9089	15.00
18.9702	17.00
19.0314	13.00
19.0927	13.00
19.154	15.00
19.2152	11.00
19.2765	14.00
19.3378	13.00
19.3991	13.00
19.4603	14.00
19.5216	10.00
19.5829	14.00
19.6441	16.00
19.7054	16.00
19.7667	12.00
19.828	10.00
19.8892	7.00
19.9505	7.00
20.0118	22.00
20.0731	15.00
20.1343	19.00
20.1956	9.00
20.2569	15.00
20.3181	20.00
20.3794	17.00
20.4407	10.00
20.502	23.00
20.5632	25.00
20.6245	16.00
20.6858	13.00
20.7471	13.00
20.8083	15.00
20.8696	21.00
20.9309	10.00
20.9921	20.00
21.0534	12.00
21.1147	11.00
21.176	12.00
21.2372	13.00
21.2985	16.00
21.3598	9.00
21.4211	14.00
21.4823	15.00
21.5436	11.00
21.6049	16.00
21.6661	10.00
21.7274	15.00
21.7887	10.00
21.85	14.00
21.9112	23.00
21.9725	9.00
22.0338	20.00
22.0951	12.00
22.1563	15.00
22.2176	20.00
22.2789	19.00
22.3401	23.00
22.4014	19.00
22.4627	20.00
22.524	20.00
22.5852	28.00
22.6465	27.00
22.7078	53.00
22.769	76.00
22.8303	195.00
22.8916	357.00
22.9529	196.00
23.0141	71.00
23.0754	43.00
23.1367	50.00
23.198	34.00
23.2592	26.00
23.3205	18.00
23.3818	20.00
23.443	19.00
23.5043	21.00
23.5656	18.00
23.6269	25.00
23.6881	37.00
23.7494	28.00
23.8107	66.00
23.872	116.00
23.9332	87.00
23.9945	37.00
24.0558	27.00
24.117	45.00
24.1783	30.00
24.2396	35.00
24.3009	35.00
24.3621	18.00
24.4234	18.00
24.4847	19.00
24.546	15.00
24.6072	11.00
24.6685	25.00
24.7298	25.00
24.791	24.00
24.8523	15.00
24.9136	12.00
24.9749	21.00
25.0361	14.00
25.0974	18.00
25.1587	14.00
25.22	17.00
25.2812	30.00
25.3425	48.00
25.4038	76.00
25.465	101.00
25.5263	111.00
25.5876	113.00
25.6489	79.00
25.7101	40.00
25.7714	31.00
25.8327	18.00
25.894	22.00
25.9552	17.00
26.0165	19.00
26.0778	26.00
26.139	14.00
26.2003	14.00
26.2616	16.00
26.3229	21.00
26.3841	21.00
26.4454	18.00
26.5067	25.00
26.5679	21.00
26.6292	17.00
26.6905	15.00
26.7518	17.00
26.813	16.00
26.8743	17.00
26.9356	22.00
26.9969	23.00
27.0581	21.00
27.1194	23.00
27.1807	26.00
27.2419	18.00
27.3032	16.00
27.3645	13.00
27.4258	14.00
27.487	24.00
27.5483	23.00
27.6096	24.00
27.6709	18.00
27.7321	22.00
27.7934	17.00
27.8547	23.00
27.9159	23.00
27.9772	22.00
28.0385	21.00
28.0998	17.00
28.161	27.00
28.2223	22.00
28.2836	22.00
28.3449	20.00
28.4061	21.00
28.4674	27.00
28.5287	31.00
28.5899	28.00
28.6512	12.00
28.7125	19.00
28.7738	21.00
28.835	18.00
28.8963	15.00
28.9576	21.00
29.0189	24.00
29.0801	29.00
29.1414	18.00
29.2027	25.00
29.2639	26.00
29.3252	20.00
29.3865	22.00
29.4478	24.00
29.509	23.00
29.5703	39.00
29.6316	58.00
29.6928	57.00
29.7541	66.00
29.8154	127.00
29.8767	104.00
29.9379	81.00
29.9992	48.00
30.0605	50.00
30.1218	38.00
30.183	29.00
30.2443	24.00
30.3056	35.00
30.3668	28.00
30.4281	31.00
30.4894	26.00
30.5507	25.00
30.6119	26.00
30.6732	20.00
30.7345	19.00
30.7958	28.00
30.857	44.00
30.9183	40.00
30.9796	28.00
31.0408	20.00
31.1021	20.00
31.1634	25.00
31.2247	22.00
31.2859	22.00
31.3472	25.00
31.4085	22.00
31.4698	26.00
31.531	23.00
31.5923	22.00
31.6536	27.00
31.7148	32.00
31.7761	30.00
31.8374	24.00
31.8987	39.00
31.9599	28.00
32.0212	47.00
32.0825	39.00
32.1438	63.00
32.205	97.00
32.2663	286.00
32.3276	374.00
32.3888	297.00
32.4501	152.00
32.5114	68.00
32.5727	59.00
32.6339	41.00
32.6952	37.00
32.7565	30.00
32.8178	33.00
32.879	32.00
32.9403	41.00
33.0016	48.00
33.0628	62.00
33.1241	112.00
33.1854	103.00
33.2467	87.00
33.3079	63.00
33.3692	43.00
33.4305	39.00
33.4917	25.00
33.553	32.00
33.6143	21.00
33.6756	20.00
33.7368	26.00
33.7981	24.00
33.8594	17.00
33.9207	19.00
33.9819	27.00
34.0432	24.00
34.1045	15.00
34.1657	29.00
34.227	22.00
34.2883	31.00
34.3496	34.00
34.4108	23.00
34.4721	25.00
34.5334	35.00
34.5947	26.00
34.6559	36.00
34.7172	29.00
34.7785	34.00
34.8397	36.00
34.901	26.00
34.9623	31.00
35.0236	34.00
35.0848	41.00
35.1461	32.00
35.2074	41.00
35.2687	41.00
35.3299	69.00
35.3912	100.00
35.4525	110.00
35.5137	139.00
35.575	188.00
35.6363	354.00
35.6976	483.00
35.7588	436.00
35.8201	317.00
35.8814	142.00
35.9427	106.00
36.0039	72.00
36.0652	69.00
36.1265	62.00
36.1877	54.00
36.249	80.00
36.3103	86.00
36.3716	103.00
36.4328	218.00
36.4941	464.00
36.5554	529.00
36.6166	378.00
36.6779	188.00
36.7392	102.00
36.8005	69.00
36.8617	59.00
36.923	37.00
36.9843	35.00
37.0456	44.00
37.1068	20.00
37.1681	39.00
37.2294	38.00
37.2906	35.00
37.3519	31.00
37.4132	25.00
37.4745	22.00
37.5357	23.00
37.597	29.00
37.6583	17.00
37.7196	18.00
37.7808	20.00
37.8421	31.00
37.9034	29.00
37.9646	25.00
38.0259	25.00
38.0872	30.00
38.1485	35.00
38.2097	53.00
38.271	87.00
38.3323	81.00
38.3936	70.00
38.4548	62.00
38.5161	39.00
38.5774	42.00
38.6386	35.00
38.6999	37.00
38.7612	54.00
38.8225	78.00
38.8837	76.00
38.945	55.00
39.0063	41.00
39.0676	31.00
39.1288	32.00
39.1901	21.00
39.2514	30.00
39.3126	31.00
39.3739	39.00
39.4352	40.00
39.4965	67.00
39.5577	82.00
39.619	131.00
39.6803	253.00
39.7416	254.00
39.8028	204.00
39.8641	142.00
39.9254	105.00
39.9866	150.00
40.0479	253.00
40.1092	193.00
40.1705	177.00
40.2317	80.00
40.293	51.00
40.3543	48.00
40.4155	38.00
40.4768	35.00
40.5381	34.00
40.5994	38.00
40.6606	28.00
40.7219	38.00
40.7832	33.00
40.8445	48.00
40.9057	49.00
40.967	39.00
41.0283	30.00
41.0895	28.00
41.1508	23.00
41.2121	27.00
41.2734	28.00
41.3346	20.00
41.3959	21.00
41.4572	26.00
41.5185	24.00
41.5797	39.00
41.641	49.00
41.7023	82.00
41.7635	141.00
41.8248	136.00
41.8861	97.00
41.9474	51.00
42.0086	37.00
42.0699	14.00
42.1312	27.00
42.1925	25.00
42.2537	26.00
42.315	21.00
42.3763	38.00
42.4375	24.00
42.4988	22.00
42.5601	20.00
42.6214	23.00
42.6826	24.00
42.7439	22.00
42.8052	31.00
42.8665	11.00
42.9277	29.00
42.989	20.00
43.0503	26.00
43.1115	31.00
43.1728	33.00
43.2341	19.00
43.2954	23.00
43.3566	21.00
43.4179	14.00
43.4792	25.00
43.5404	21.00
43.6017	22.00
43.663	15.00
43.7243	14.00
43.7855	26.00
43.8468	10.00
43.9081	14.00
43.9694	19.00
44.0306	24.00
44.0919	11.00
44.1532	26.00
44.2144	22.00
44.2757	21.00
44.337	25.00
44.3983	36.00
44.4595	20.00
44.5208	32.00
44.5821	50.00
44.6434	49.00
44.7046	36.00
44.7659	27.00
44.8272	28.00
44.8884	23.00
44.9497	27.00
45.011	24.00
45.0723	28.00
45.1335	18.00
45.1948	18.00
45.2561	16.00
45.3174	19.00
45.3786	16.00
45.4399	10.00
45.5012	18.00
45.5624	12.00
45.6237	18.00
45.685	18.00
45.7463	18.00
45.8075	16.00
45.8688	22.00
45.9301	16.00
45.9914	19.00
46.0526	10.00
46.1139	20.00
46.1752	27.00
46.2364	21.00
46.2977	23.00
46.359	19.00
46.4203	24.00
46.4815	27.00
46.5428	39.00
46.6041	40.00
46.6654	34.00
46.7266	39.00
46.7879	38.00
46.8492	27.00
46.9104	23.00
46.9717	24.00
47.033	26.00
47.0943	15.00
47.1555	24.00
47.2168	27.00
47.2781	15.00
47.3393	12.00
47.4006	9.00
47.4619	13.00
47.5232	22.00
47.5844	21.00
47.6457	23.00
47.707	14.00
47.7683	9.00
47.8295	12.00
47.8908	15.00
47.9521	17.00
48.0133	15.00
48.0746	15.00
48.1359	18.00
48.1972	17.00
48.2584	23.00
48.3197	28.00
48.381	40.00
48.4423	67.00
48.5035	64.00
48.5648	59.00
48.6261	43.00
48.6873	37.00
48.7486	21.00
48.8099	36.00
48.8712	37.00
48.9324	25.00
48.9937	27.00
49.055	39.00
49.1163	26.00
49.1775	42.00
49.2388	32.00
49.3001	29.00
49.3613	37.00
49.4226	55.00
49.4839	61.00
49.5452	48.00
49.6064	58.00
49.6677	35.00
49.729	34.00
49.7903	34.00
49.8515	38.00
49.9128	26.00
49.9741	21.00
50.0353	24.00
50.0966	25.00
50.1579	28.00
50.2192	30.00
50.2804	27.00
50.3417	41.00
50.403	36.00
50.4642	37.00
50.5255	35.00
50.5868	26.00
50.6481	22.00
50.7093	26.00
50.7706	23.00
50.8319	35.00
50.8932	42.00
50.9544	47.00
51.0157	40.00
51.077	43.00
51.1382	29.00
51.1995	25.00
51.2608	23.00
51.3221	21.00
51.3833	29.00
51.4446	32.00
51.5059	17.00
51.5672	21.00
51.6284	36.00
51.6897	32.00
51.751	36.00
51.8122	37.00
51.8735	27.00
51.9348	55.00
51.9961	80.00
52.0573	101.00
52.1186	143.00
52.1799	283.00
52.2412	391.00
52.3024	363.00
52.3637	356.00
52.425	242.00
52.4862	234.00
52.5475	219.00
52.6088	151.00
52.6701	137.00
52.7313	105.00
52.7926	86.00
52.8539	78.00
52.9152	61.00
52.9764	57.00
53.0377	41.00
53.099	38.00
53.1602	38.00
53.2215	30.00
53.2828	28.00
53.3441	25.00
53.4053	36.00
53.4666	34.00
53.5279	35.00
53.5892	41.00
53.6504	39.00
53.7117	30.00
53.773	37.00
53.8342	42.00
53.8955	45.00
53.9568	56.00
54.0181	52.00
54.0793	67.00
54.1406	65.00
54.2019	56.00
54.2631	60.00
54.3244	51.00
54.3857	39.00
54.447	34.00
54.5082	42.00
54.5695	36.00
54.6308	45.00
54.6921	38.00
54.7533	63.00
54.8146	97.00
54.8759	110.00
54.9371	95.00
54.9984	106.00
55.0597	84.00
55.121	54.00
55.1822	40.00
55.2435	30.00
55.3048	33.00
55.3661	26.00
55.4273	31.00
55.4886	29.00
55.5499	34.00
55.6111	38.00
55.6724	34.00
55.7337	35.00
55.795	25.00
55.8562	46.00
55.9175	49.00
55.9788	49.00
56.0401	49.00
56.1013	114.00
56.1626	122.00
56.2239	109.00
56.2851	106.00
56.3464	83.00
56.4077	86.00
56.469	58.00
56.5302	60.00
56.5915	52.00
56.6528	58.00
56.7141	79.00
56.7753	110.00
56.8366	136.00
56.8979	111.00
56.9591	128.00
57.0204	115.00
57.0817	90.00
57.143	63.00
57.2042	64.00
57.2655	40.00
57.3268	44.00
57.388	43.00
57.4493	38.00
57.5106	47.00
57.5719	51.00
57.6331	35.00
57.6944	42.00
57.7557	49.00
57.817	44.00
57.8782	54.00
57.9395	68.00
58.0008	49.00
58.062	39.00
58.1233	49.00
58.1846	43.00
58.2459	28.00
58.3071	37.00
58.3684	39.00
58.4297	18.00
58.491	36.00
58.5522	42.00
58.6135	51.00
58.6748	81.00
58.736	101.00
58.7973	89.00
58.8586	74.00
58.9199	59.00
58.9811	62.00
59.0424	45.00
59.1037	39.00
59.165	29.00
59.2262	32.00
59.2875	25.00
59.3488	34.00
59.41	34.00
59.4713	31.00
59.5326	26.00
59.5939	42.00
59.6551	30.00
59.7164	23.00
59.7777	32.00
59.839	28.00
59.9002	33.00
59.9615	28.00
60.0228	31.00
60.084	29.00
60.1453	34.00
60.2066	46.00
60.2679	33.00
60.3291	41.00
60.3904	41.00
60.4517	41.00
60.513	35.00
60.5742	28.00
60.6355	41.00
60.6968	36.00
60.758	42.00
60.8193	34.00
60.8806	44.00
60.9419	56.00
61.0031	58.00
61.0644	67.00
61.1257	60.00
61.1869	88.00
61.2482	74.00
61.3095	79.00
61.3708	65.00
61.432	68.00
61.4933	71.00
61.5546	89.00
61.6159	84.00
61.6771	95.00
61.7384	80.00
61.7997	145.00
61.8609	142.00
61.9222	199.00
61.9835	203.00
62.0448	204.00
62.106	189.00
62.1673	159.00
62.2286	120.00
62.2899	110.00
62.3511	105.00
62.4124	101.00
62.4737	113.00
62.5349	131.00
62.5962	149.00
62.6575	183.00
62.7188	255.00
62.78	273.00
62.8413	268.00
62.9026	261.00
62.9639	217.00
63.0251	151.00
63.0864	124.00
63.1477	73.00
63.2089	78.00
63.2702	59.00
63.3315	43.00
63.3928	62.00
63.454	50.00
63.5153	52.00
63.5766	51.00
63.6379	51.00
63.6991	56.00
63.7604	54.00
63.8217	35.00
63.8829	54.00
63.9442	60.00
64.0055	60.00
64.0668	62.00
64.128	67.00
64.1893	54.00
64.2506	43.00
64.3118	46.00
64.3731	34.00
64.4344	35.00
64.4957	44.00
64.5569	37.00
64.6182	35.00
64.6795	28.00
64.7408	49.00
64.802	66.00
64.8633	44.00
64.9246	49.00
64.9858	44.00
65.0471	42.00
65.1084	38.00
65.1697	34.00
65.2309	26.00
65.2922	22.00
65.3535	38.00
65.4148	24.00
65.476	34.00
65.5373	36.00
65.5986	26.00
65.6598	33.00
65.7211	40.00
65.7824	30.00
65.8437	25.00
65.9049	32.00
65.9662	36.00
66.0275	23.00
66.0888	32.00
66.15	25.00
66.2113	34.00
66.2726	34.00
66.3338	41.00
66.3951	33.00
66.4564	26.00
66.5177	26.00
66.5789	20.00
66.6402	34.00
66.7015	47.00
66.7628	56.00
66.824	82.00
66.8853	98.00
66.9466	85.00
67.0078	104.00
67.0691	116.00
67.1304	131.00
67.1917	95.00
67.2529	88.00
67.3142	95.00
67.3755	80.00
67.4368	70.00
67.498	75.00
67.5593	74.00
67.6206	53.00
67.6818	42.00
67.7431	36.00
67.8044	51.00
67.8657	39.00
67.9269	33.00
67.9882	32.00
68.0495	31.00
68.1107	23.00
68.172	30.00
68.2333	31.00
68.2946	33.00
68.3558	36.00
68.4171	36.00
68.4784	32.00
68.5397	27.00
68.6009	31.00
68.6622	35.00
68.7235	32.00
68.7847	37.00
68.846	27.00
68.9073	26.00
68.9686	37.00
69.0298	50.00
69.0911	38.00
69.1524	53.00
69.2137	46.00
69.2749	66.00
69.3362	72.00
69.3975	118.00
69.4587	136.00
69.52	135.00
69.5813	136.00
69.6426	143.00
69.7038	168.00
69.7651	115.00
69.8264	99.00
69.8877	82.00
69.9489	83.00
70.0102	50.00