File: Suppl data/Spectra/XRD spectra/MS43B.txt
MS43B
Wavelength = 1.54059
5	7.00
5.0613	6.00
5.1226	10.00
5.1838	4.00
5.2451	5.00
5.3064	7.00
5.3676	7.00
5.4289	7.00
5.4902	9.00
5.5515	6.00
5.6127	2.00
5.674	13.00
5.7353	1.00
5.7965	11.00
5.8578	9.00
5.9191	5.00
5.9804	11.00
6.0416	7.00
6.1029	8.00
6.1642	9.00
6.2255	12.00
6.2867	11.00
6.348	5.00
6.4093	6.00
6.4705	4.00
6.5318	8.00
6.5931	9.00
6.6544	13.00
6.7156	6.00
6.7769	1.00
6.8382	7.00
6.8995	8.00
6.9607	6.00
7.022	10.00
7.0833	8.00
7.1445	14.00
7.2058	11.00
7.2671	8.00
7.3284	8.00
7.3896	10.00
7.4509	7.00
7.5122	10.00
7.5735	4.00
7.6347	7.00
7.696	10.00
7.7573	11.00
7.8185	12.00
7.8798	8.00
7.9411	7.00
8.0024	9.00
8.0636	12.00
8.1249	5.00
8.1862	6.00
8.2475	9.00
8.3087	11.00
8.37	12.00
8.4313	7.00
8.4925	10.00
8.5538	11.00
8.6151	10.00
8.6764	3.00
8.7376	11.00
8.7989	9.00
8.8602	11.00
8.9214	8.00
8.9827	7.00
9.044	8.00
9.1053	8.00
9.1665	3.00
9.2278	11.00
9.2891	4.00
9.3504	8.00
9.4116	12.00
9.4729	13.00
9.5342	6.00
9.5954	11.00
9.6567	15.00
9.718	11.00
9.7793	9.00
9.8405	12.00
9.9018	8.00
9.9631	6.00
10.0244	15.00
10.0856	12.00
10.1469	11.00
10.2082	12.00
10.2694	14.00
10.3307	13.00
10.392	14.00
10.4533	15.00
10.5145	12.00
10.5758	13.00
10.6371	12.00
10.6984	11.00
10.7596	15.00
10.8209	15.00
10.8822	22.00
10.9434	20.00
11.0047	12.00
11.066	14.00
11.1273	14.00
11.1885	14.00
11.2498	24.00
11.3111	19.00
11.3724	16.00
11.4336	20.00
11.4949	25.00
11.5562	31.00
11.6174	20.00
11.6787	27.00
11.74	31.00
11.8013	42.00
11.8625	42.00
11.9238	53.00
11.9851	59.00
12.0464	80.00
12.1076	150.00
12.1689	153.00
12.2302	72.00
12.2914	55.00
12.3527	49.00
12.414	35.00
12.4753	32.00
12.5365	19.00
12.5978	28.00
12.6591	18.00
12.7203	25.00
12.7816	13.00
12.8429	16.00
12.9042	18.00
12.9654	22.00
13.0267	22.00
13.088	13.00
13.1493	23.00
13.2105	17.00
13.2718	22.00
13.3331	13.00
13.3943	18.00
13.4556	14.00
13.5169	15.00
13.5782	20.00
13.6394	11.00
13.7007	14.00
13.762	13.00
13.8233	20.00
13.8845	18.00
13.9458	12.00
14.0071	20.00
14.0683	10.00
14.1296	13.00
14.1909	7.00
14.2522	14.00
14.3134	18.00
14.3747	16.00
14.436	14.00
14.4973	13.00
14.5585	12.00
14.6198	13.00
14.6811	9.00
14.7423	12.00
14.8036	18.00
14.8649	14.00
14.9262	11.00
14.9874	12.00
15.0487	15.00
15.11	11.00
15.1713	9.00
15.2325	8.00
15.2938	15.00
15.3551	10.00
15.4163	11.00
15.4776	11.00
15.5389	16.00
15.6002	13.00
15.6614	18.00
15.7227	12.00
15.784	17.00
15.8452	18.00
15.9065	7.00
15.9678	18.00
16.0291	11.00
16.0903	16.00
16.1516	4.00
16.2129	15.00
16.2742	13.00
16.3354	15.00
16.3967	9.00
16.458	14.00
16.5192	6.00
16.5805	15.00
16.6418	11.00
16.7031	13.00
16.7643	15.00
16.8256	9.00
16.8869	14.00
16.9482	8.00
17.0094	4.00
17.0707	14.00
17.132	9.00
17.1932	15.00
17.2545	22.00
17.3158	68.00
17.3771	51.00
17.4383	13.00
17.4996	12.00
17.5609	13.00
17.6222	8.00
17.6834	7.00
17.7447	8.00
17.806	12.00
17.8672	13.00
17.9285	9.00
17.9898	8.00
18.0511	5.00
18.1123	11.00
18.1736	17.00
18.2349	16.00
18.2962	19.00
18.3574	15.00
18.4187	18.00
18.48	14.00
18.5412	13.00
18.6025	14.00
18.6638	20.00
18.7251	15.00
18.7863	17.00
18.8476	20.00
18.9089	19.00
18.9702	21.00
19.0314	20.00
19.0927	19.00
19.154	29.00
19.2152	41.00
19.2765	39.00
19.3378	36.00
19.3991	36.00
19.4603	25.00
19.5216	34.00
19.5829	37.00
19.6441	29.00
19.7054	38.00
19.7667	29.00
19.828	28.00
19.8892	36.00
19.9505	28.00
20.0118	32.00
20.0731	29.00
20.1343	30.00
20.1956	34.00
20.2569	29.00
20.3181	29.00
20.3794	23.00
20.4407	25.00
20.502	27.00
20.5632	36.00
20.6245	27.00
20.6858	25.00
20.7471	24.00
20.8083	23.00
20.8696	22.00
20.9309	26.00
20.9921	21.00
21.0534	31.00
21.1147	29.00
21.176	22.00
21.2372	24.00
21.2985	16.00
21.3598	27.00
21.4211	25.00
21.4823	20.00
21.5436	20.00
21.6049	20.00
21.6661	30.00
21.7274	23.00
21.7887	20.00
21.85	14.00
21.9112	21.00
21.9725	20.00
22.0338	24.00
22.0951	19.00
22.1563	24.00
22.2176	21.00
22.2789	26.00
22.3401	23.00
22.4014	28.00
22.4627	27.00
22.524	25.00
22.5852	26.00
22.6465	23.00
22.7078	23.00
22.769	41.00
22.8303	257.00
22.8916	168.00
22.9529	53.00
23.0141	33.00
23.0754	18.00
23.1367	46.00
23.198	25.00
23.2592	30.00
23.3205	23.00
23.3818	31.00
23.443	24.00
23.5043	26.00
23.5656	35.00
23.6269	23.00
23.6881	29.00
23.7494	26.00
23.8107	64.00
23.872	86.00
23.9332	58.00
23.9945	43.00
24.0558	53.00
24.117	53.00
24.1783	60.00
24.2396	72.00
24.3009	87.00
24.3621	108.00
24.4234	137.00
24.4847	135.00
24.546	105.00
24.6072	91.00
24.6685	68.00
24.7298	44.00
24.791	51.00
24.8523	47.00
24.9136	42.00
24.9749	25.00
25.0361	28.00
25.0974	34.00
25.1587	24.00
25.22	31.00
25.2812	28.00
25.3425	37.00
25.4038	115.00
25.465	86.00
25.5263	70.00
25.5876	51.00
25.6489	26.00
25.7101	26.00
25.7714	15.00
25.8327	16.00
25.894	24.00
25.9552	24.00
26.0165	16.00
26.0778	20.00
26.139	21.00
26.2003	14.00
26.2616	14.00
26.3229	19.00
26.3841	24.00
26.4454	10.00
26.5067	27.00
26.5679	21.00
26.6292	20.00
26.6905	24.00
26.7518	20.00
26.813	13.00
26.8743	11.00
26.9356	21.00
26.9969	22.00
27.0581	23.00
27.1194	22.00
27.1807	17.00
27.2419	17.00
27.3032	16.00
27.3645	19.00
27.4258	22.00
27.487	26.00
27.5483	35.00
27.6096	40.00
27.6709	74.00
27.7321	54.00
27.7934	20.00
27.8547	14.00
27.9159	14.00
27.9772	29.00
28.0385	15.00
28.0998	24.00
28.161	45.00
28.2223	31.00
28.2836	36.00
28.3449	27.00
28.4061	29.00
28.4674	23.00
28.5287	25.00
28.5899	14.00
28.6512	20.00
28.7125	18.00
28.7738	17.00
28.835	26.00
28.8963	10.00
28.9576	18.00
29.0189	20.00
29.0801	21.00
29.1414	17.00
29.2027	14.00
29.2639	23.00
29.3252	24.00
29.3865	22.00
29.4478	19.00
29.509	17.00
29.5703	28.00
29.6316	58.00
29.6928	48.00
29.7541	97.00
29.8154	141.00
29.8767	204.00
29.9379	97.00
29.9992	62.00
30.0605	50.00
30.1218	58.00
30.183	44.00
30.2443	42.00
30.3056	40.00
30.3668	78.00
30.4281	52.00
30.4894	33.00
30.5507	19.00
30.6119	17.00
30.6732	27.00
30.7345	25.00
30.7958	32.00
30.857	49.00
30.9183	77.00
30.9796	49.00
31.0408	36.00
31.1021	68.00
31.1634	40.00
31.2247	24.00
31.2859	15.00
31.3472	22.00
31.4085	25.00
31.4698	18.00
31.531	19.00
31.5923	29.00
31.6536	29.00
31.7148	30.00
31.7761	18.00
31.8374	13.00
31.8987	18.00
31.9599	25.00
32.0212	22.00
32.0825	29.00
32.1438	23.00
32.205	94.00
32.2663	526.00
32.3276	222.00
32.3888	96.00
32.4501	32.00
32.5114	20.00
32.5727	34.00
32.6339	22.00
32.6952	21.00
32.7565	18.00
32.8178	18.00
32.879	15.00
32.9403	15.00
33.0016	24.00
33.0628	27.00
33.1241	37.00
33.1854	21.00
33.2467	23.00
33.3079	17.00
33.3692	22.00
33.4305	32.00
33.4917	30.00
33.553	27.00
33.6143	24.00
33.6756	33.00
33.7368	33.00
33.7981	40.00
33.8594	40.00
33.9207	35.00
33.9819	34.00
34.0432	32.00
34.1045	42.00
34.1657	35.00
34.227	46.00
34.2883	44.00
34.3496	42.00
34.4108	51.00
34.4721	44.00
34.5334	44.00
34.5947	54.00
34.6559	34.00
34.7172	56.00
34.7785	58.00
34.8397	79.00
34.901	67.00
34.9623	72.00
35.0236	89.00
35.0848	74.00
35.1461	66.00
35.2074	81.00
35.2687	100.00
35.3299	116.00
35.3912	159.00
35.4525	274.00
35.5137	260.00
35.575	219.00
35.6363	433.00
35.6976	281.00
35.7588	319.00
35.8201	185.00
35.8814	162.00
35.9427	156.00
36.0039	128.00
36.0652	115.00
36.1265	115.00
36.1877	93.00
36.249	81.00
36.3103	125.00
36.3716	140.00
36.4328	377.00
36.4941	415.00
36.5554	440.00
36.6166	135.00
36.6779	97.00
36.7392	87.00
36.8005	75.00
36.8617	77.00
36.923	82.00
36.9843	75.00
37.0456	73.00
37.1068	66.00
37.1681	62.00
37.2294	62.00
37.2906	50.00
37.3519	62.00
37.4132	64.00
37.4745	55.00
37.5357	46.00
37.597	44.00
37.6583	64.00
37.7196	54.00
37.7808	50.00
37.8421	54.00
37.9034	39.00
37.9646	57.00
38.0259	37.00
38.0872	51.00
38.1485	52.00
38.2097	79.00
38.271	93.00
38.3323	98.00
38.3936	47.00
38.4548	45.00
38.5161	38.00
38.5774	29.00
38.6386	41.00
38.6999	26.00
38.7612	61.00
38.8225	71.00
38.8837	70.00
38.945	50.00
39.0063	45.00
39.0676	50.00
39.1288	45.00
39.1901	54.00
39.2514	42.00
39.3126	37.00
39.3739	49.00
39.4352	36.00
39.4965	38.00
39.5577	80.00
39.619	199.00
39.6803	103.00
39.7416	120.00
39.8028	60.00
39.8641	53.00
39.9254	101.00
39.9866	193.00
40.0479	93.00
40.1092	110.00
40.1705	35.00
40.2317	38.00
40.293	33.00
40.3543	36.00
40.4155	30.00
40.4768	38.00
40.5381	30.00
40.5994	37.00
40.6606	43.00
40.7219	32.00
40.7832	39.00
40.8445	38.00
40.9057	25.00
40.967	40.00
41.0283	51.00
41.0895	52.00
41.1508	53.00
41.2121	38.00
41.2734	29.00
41.3346	36.00
41.3959	27.00
41.4572	39.00
41.5185	43.00
41.5797	45.00
41.641	57.00
41.7023	123.00
41.7635	89.00
41.8248	114.00
41.8861	70.00
41.9474	69.00
42.0086	77.00
42.0699	87.00
42.1312	92.00
42.1925	71.00
42.2537	54.00
42.315	66.00
42.3763	58.00
42.4375	77.00
42.4988	70.00
42.5601	57.00
42.6214	40.00
42.6826	65.00
42.7439	49.00
42.8052	56.00
42.8665	54.00
42.9277	66.00
42.989	72.00
43.0503	89.00
43.1115	59.00
43.1728	40.00
43.2341	60.00
43.2954	54.00
43.3566	42.00
43.4179	35.00
43.4792	39.00
43.5404	29.00
43.6017	44.00
43.663	23.00
43.7243	36.00
43.7855	35.00
43.8468	24.00
43.9081	30.00
43.9694	26.00
44.0306	48.00
44.0919	37.00
44.1532	35.00
44.2144	28.00
44.2757	42.00
44.337	36.00
44.3983	41.00
44.4595	50.00
44.5208	67.00
44.5821	41.00
44.6434	37.00
44.7046	29.00
44.7659	25.00
44.8272	36.00
44.8884	49.00
44.9497	47.00
45.011	54.00
45.0723	42.00
45.1335	37.00
45.1948	39.00
45.2561	30.00
45.3174	37.00
45.3786	33.00
45.4399	21.00
45.5012	33.00
45.5624	19.00
45.6237	24.00
45.685	26.00
45.7463	26.00
45.8075	25.00
45.8688	30.00
45.9301	28.00
45.9914	27.00
46.0526	26.00
46.1139	36.00
46.1752	25.00
46.2364	29.00
46.2977	28.00
46.359	31.00
46.4203	35.00
46.4815	52.00
46.5428	44.00
46.6041	45.00
46.6654	50.00
46.7266	26.00
46.7879	34.00
46.8492	25.00
46.9104	22.00
46.9717	23.00
47.033	28.00
47.0943	19.00
47.1555	23.00
47.2168	24.00
47.2781	25.00
47.3393	15.00
47.4006	31.00
47.4619	23.00
47.5232	11.00
47.5844	28.00
47.6457	24.00
47.707	23.00
47.7683	24.00
47.8295	26.00
47.8908	17.00
47.9521	25.00
48.0133	29.00
48.0746	24.00
48.1359	20.00
48.1972	29.00
48.2584	17.00
48.3197	36.00
48.381	57.00
48.4423	37.00
48.5035	54.00
48.5648	39.00
48.6261	37.00
48.6873	20.00
48.7486	25.00
48.8099	38.00
48.8712	25.00
48.9324	39.00
48.9937	28.00
49.055	28.00
49.1163	24.00
49.1775	35.00
49.2388	27.00
49.3001	32.00
49.3613	32.00
49.4226	33.00
49.4839	21.00
49.5452	33.00
49.6064	45.00
49.6677	39.00
49.729	52.00
49.7903	49.00
49.8515	40.00
49.9128	36.00
49.9741	31.00
50.0353	36.00
50.0966	40.00
50.1579	47.00
50.2192	41.00
50.2804	55.00
50.3417	51.00
50.403	51.00
50.4642	41.00
50.5255	31.00
50.5868	34.00
50.6481	40.00
50.7093	40.00
50.7706	46.00
50.8319	58.00
50.8932	67.00
50.9544	44.00
51.0157	63.00
51.077	49.00
51.1382	33.00
51.1995	46.00
51.2608	38.00
51.3221	33.00
51.3833	29.00
51.4446	37.00
51.5059	41.00
51.5672	34.00
51.6284	38.00
51.6897	45.00
51.751	42.00
51.8122	39.00
51.8735	42.00
51.9348	43.00
51.9961	61.00
52.0573	83.00
52.1186	222.00
52.1799	433.00
52.2412	161.00
52.3024	297.00
52.3637	139.00
52.425	125.00
52.4862	143.00
52.5475	76.00
52.6088	104.00
52.6701	58.00
52.7313	47.00
52.7926	60.00
52.8539	54.00
52.9152	65.00
52.9764	85.00
53.0377	38.00
53.099	52.00
53.1602	59.00
53.2215	36.00
53.2828	47.00
53.3441	41.00
53.4053	46.00
53.4666	47.00
53.5279	48.00
53.5892	45.00
53.6504	40.00
53.7117	35.00
53.773	50.00
53.8342	47.00
53.8955	32.00
53.9568	34.00
54.0181	37.00
54.0793	47.00
54.1406	33.00
54.2019	31.00
54.2631	32.00
54.3244	37.00
54.3857	36.00
54.447	26.00
54.5082	40.00
54.5695	38.00
54.6308	49.00
54.6921	37.00
54.7533	77.00
54.8146	128.00
54.8759	71.00
54.9371	88.00
54.9984	57.00
55.0597	37.00
55.121	36.00
55.1822	32.00
55.2435	43.00
55.3048	40.00
55.3661	34.00
55.4273	37.00
55.4886	31.00
55.5499	22.00
55.6111	40.00
55.6724	33.00
55.7337	37.00
55.795	35.00
55.8562	26.00
55.9175	44.00
55.9788	73.00
56.0401	145.00
56.1013	55.00
56.1626	83.00
56.2239	85.00
56.2851	47.00
56.3464	49.00
56.4077	53.00
56.469	62.00
56.5302	77.00
56.5915	52.00
56.6528	86.00
56.7141	144.00
56.7753	124.00
56.8366	87.00
56.8979	120.00
56.9591	90.00
57.0204	56.00
57.0817	73.00
57.143	88.00
57.2042	62.00
57.2655	39.00
57.3268	59.00
57.388	47.00
57.4493	32.00
57.5106	37.00
57.5719	49.00
57.6331	20.00
57.6944	39.00
57.7557	25.00
57.817	59.00
57.8782	91.00
57.9395	46.00
58.0008	74.00
58.062	56.00
58.1233	36.00
58.1846	42.00
58.2459	34.00
58.3071	36.00
58.3684	27.00
58.4297	41.00
58.491	52.00
58.5522	78.00
58.6135	61.00
58.6748	58.00
58.736	83.00
58.7973	66.00
58.8586	47.00
58.9199	55.00
58.9811	65.00
59.0424	56.00
59.1037	53.00
59.165	51.00
59.2262	66.00
59.2875	71.00
59.3488	61.00
59.41	60.00
59.4713	81.00
59.5326	79.00
59.5939	76.00
59.6551	74.00
59.7164	87.00
59.7777	87.00
59.839	88.00
59.9002	107.00
59.9615	112.00
60.0228	112.00
60.084	126.00
60.1453	128.00
60.2066	136.00
60.2679	122.00
60.3291	112.00
60.3904	110.00
60.4517	113.00
60.513	91.00
60.5742	96.00
60.6355	97.00
60.6968	90.00
60.758	76.00
60.8193	91.00
60.8806	109.00
60.9419	80.00
61.0031	86.00
61.0644	93.00
61.1257	116.00
61.1869	102.00
61.2482	91.00
61.3095	76.00
61.3708	98.00
61.432	88.00
61.4933	119.00
61.5546	100.00
61.6159	126.00
61.6771	145.00
61.7384	125.00
61.7997	155.00
61.8609	223.00
61.9222	125.00
61.9835	143.00
62.0448	166.00
62.106	77.00
62.1673	62.00
62.2286	75.00
62.2899	81.00
62.3511	75.00
62.4124	77.00
62.4737	122.00
62.5349	169.00
62.5962	236.00
62.6575	332.00
62.7188	139.00
62.78	177.00
62.8413	163.00
62.9026	65.00
62.9639	54.00
63.0251	52.00
63.0864	51.00
63.1477	43.00
63.2089	53.00
63.2702	35.00
63.3315	61.00
63.3928	48.00
63.454	40.00
63.5153	32.00
63.5766	47.00
63.6379	42.00
63.6991	35.00
63.7604	39.00
63.8217	39.00
63.8829	28.00
63.9442	36.00
64.0055	41.00
64.0668	30.00
64.128	34.00
64.1893	25.00
64.2506	38.00
64.3118	30.00
64.3731	38.00
64.4344	48.00
64.4957	39.00
64.5569	31.00
64.6182	47.00
64.6795	52.00
64.7408	55.00
64.802	44.00
64.8633	35.00
64.9246	47.00
64.9858	40.00
65.0471	30.00
65.1084	27.00
65.1697	43.00
65.2309	39.00
65.2922	38.00
65.3535	27.00
65.4148	34.00
65.476	52.00
65.5373	50.00
65.5986	37.00
65.6598	48.00
65.7211	49.00
65.7824	50.00
65.8437	58.00
65.9049	48.00
65.9662	60.00
66.0275	48.00
66.0888	43.00
66.15	54.00
66.2113	48.00
66.2726	50.00
66.3338	42.00
66.3951	44.00
66.4564	38.00
66.5177	55.00
66.5789	55.00
66.6402	34.00
66.7015	48.00
66.7628	68.00
66.824	99.00
66.8853	112.00
66.9466	196.00
67.0078	92.00
67.0691	52.00
67.1304	114.00
67.1917	73.00
67.2529	74.00
67.3142	118.00
67.3755	55.00
67.4368	64.00
67.498	65.00
67.5593	44.00
67.6206	30.00
67.6818	36.00
67.7431	40.00
67.8044	26.00
67.8657	32.00
67.9269	43.00
67.9882	34.00
68.0495	34.00
68.1107	32.00
68.172	40.00
68.2333	42.00
68.2946	33.00
68.3558	34.00
68.4171	32.00
68.4784	35.00
68.5397	26.00
68.6009	33.00
68.6622	36.00
68.7235	29.00
68.7847	35.00
68.846	22.00
68.9073	25.00
68.9686	44.00
69.0298	45.00
69.0911	36.00
69.1524	40.00
69.2137	47.00
69.2749	49.00
69.3362	71.00
69.3975	122.00
69.4587	86.00
69.52	62.00
69.5813	97.00
69.6426	96.00
69.7038	61.00
69.7651	55.00
69.8264	51.00
69.8877	46.00
69.9489	38.00
70.0102	40.00