File: Suppl data/Spectra/XRD spectra/MS43BRED.txt
MS43BRED
Wavelength = 1.54059
5	8.00
5.0613	3.00
5.1226	6.00
5.1838	7.00
5.2451	12.00
5.3064	12.00
5.3676	5.00
5.4289	7.00
5.4902	4.00
5.5515	8.00
5.6127	8.00
5.674	7.00
5.7353	9.00
5.7965	7.00
5.8578	11.00
5.9191	8.00
5.9804	14.00
6.0416	7.00
6.1029	8.00
6.1642	11.00
6.2255	5.00
6.2867	10.00
6.348	6.00
6.4093	8.00
6.4705	6.00
6.5318	12.00
6.5931	3.00
6.6544	10.00
6.7156	9.00
6.7769	7.00
6.8382	10.00
6.8995	6.00
6.9607	11.00
7.022	7.00
7.0833	6.00
7.1445	7.00
7.2058	6.00
7.2671	13.00
7.3284	9.00
7.3896	5.00
7.4509	4.00
7.5122	11.00
7.5735	11.00
7.6347	6.00
7.696	8.00
7.7573	8.00
7.8185	10.00
7.8798	7.00
7.9411	10.00
8.0024	7.00
8.0636	9.00
8.1249	12.00
8.1862	9.00
8.2475	7.00
8.3087	14.00
8.37	11.00
8.4313	8.00
8.4925	9.00
8.5538	11.00
8.6151	10.00
8.6764	9.00
8.7376	6.00
8.7989	7.00
8.8602	8.00
8.9214	14.00
8.9827	7.00
9.044	7.00
9.1053	13.00
9.1665	16.00
9.2278	10.00
9.2891	8.00
9.3504	7.00
9.4116	11.00
9.4729	6.00
9.5342	12.00
9.5954	16.00
9.6567	15.00
9.718	9.00
9.7793	8.00
9.8405	7.00
9.9018	6.00
9.9631	11.00
10.0244	12.00
10.0856	11.00
10.1469	10.00
10.2082	6.00
10.2694	7.00
10.3307	11.00
10.392	7.00
10.4533	12.00
10.5145	12.00
10.5758	16.00
10.6371	12.00
10.6984	10.00
10.7596	12.00
10.8209	14.00
10.8822	18.00
10.9434	16.00
11.0047	15.00
11.066	10.00
11.1273	10.00
11.1885	9.00
11.2498	9.00
11.3111	12.00
11.3724	18.00
11.4336	5.00
11.4949	9.00
11.5562	9.00
11.6174	11.00
11.6787	12.00
11.74	14.00
11.8013	16.00
11.8625	11.00
11.9238	14.00
11.9851	14.00
12.0464	19.00
12.1076	11.00
12.1689	15.00
12.2302	15.00
12.2914	13.00
12.3527	13.00
12.414	9.00
12.4753	10.00
12.5365	14.00
12.5978	15.00
12.6591	16.00
12.7203	16.00
12.7816	17.00
12.8429	16.00
12.9042	15.00
12.9654	8.00
13.0267	14.00
13.088	13.00
13.1493	13.00
13.2105	23.00
13.2718	16.00
13.3331	16.00
13.3943	16.00
13.4556	16.00
13.5169	21.00
13.5782	11.00
13.6394	14.00
13.7007	17.00
13.762	10.00
13.8233	14.00
13.8845	13.00
13.9458	15.00
14.0071	19.00
14.0683	14.00
14.1296	17.00
14.1909	14.00
14.2522	12.00
14.3134	13.00
14.3747	14.00
14.436	16.00
14.4973	13.00
14.5585	19.00
14.6198	13.00
14.6811	10.00
14.7423	12.00
14.8036	15.00
14.8649	14.00
14.9262	14.00
14.9874	17.00
15.0487	15.00
15.11	19.00
15.1713	10.00
15.2325	18.00
15.2938	15.00
15.3551	10.00
15.4163	14.00
15.4776	12.00
15.5389	17.00
15.6002	14.00
15.6614	13.00
15.7227	10.00
15.784	14.00
15.8452	11.00
15.9065	11.00
15.9678	17.00
16.0291	14.00
16.0903	13.00
16.1516	8.00
16.2129	6.00
16.2742	19.00
16.3354	8.00
16.3967	16.00
16.458	14.00
16.5192	19.00
16.5805	16.00
16.6418	15.00
16.7031	13.00
16.7643	13.00
16.8256	14.00
16.8869	16.00
16.9482	16.00
17.0094	11.00
17.0707	19.00
17.132	12.00
17.1932	11.00
17.2545	30.00
17.3158	54.00
17.3771	99.00
17.4383	35.00
17.4996	17.00
17.5609	18.00
17.6222	12.00
17.6834	18.00
17.7447	18.00
17.806	11.00
17.8672	10.00
17.9285	11.00
17.9898	11.00
18.0511	18.00
18.1123	13.00
18.1736	12.00
18.2349	13.00
18.2962	6.00
18.3574	12.00
18.4187	13.00
18.48	7.00
18.5412	10.00
18.6025	9.00
18.6638	12.00
18.7251	12.00
18.7863	14.00
18.8476	15.00
18.9089	6.00
18.9702	13.00
19.0314	9.00
19.0927	7.00
19.154	21.00
19.2152	13.00
19.2765	15.00
19.3378	9.00
19.3991	13.00
19.4603	12.00
19.5216	15.00
19.5829	14.00
19.6441	14.00
19.7054	11.00
19.7667	26.00
19.828	14.00
19.8892	19.00
19.9505	26.00
20.0118	16.00
20.0731	14.00
20.1343	19.00
20.1956	16.00
20.2569	11.00
20.3181	14.00
20.3794	12.00
20.4407	9.00
20.502	14.00
20.5632	19.00
20.6245	21.00
20.6858	11.00
20.7471	15.00
20.8083	14.00
20.8696	12.00
20.9309	19.00
20.9921	13.00
21.0534	11.00
21.1147	14.00
21.176	9.00
21.2372	14.00
21.2985	14.00
21.3598	14.00
21.4211	11.00
21.4823	18.00
21.5436	9.00
21.6049	17.00
21.6661	18.00
21.7274	11.00
21.7887	11.00
21.85	9.00
21.9112	15.00
21.9725	19.00
22.0338	14.00
22.0951	18.00
22.1563	9.00
22.2176	20.00
22.2789	15.00
22.3401	15.00
22.4014	13.00
22.4627	19.00
22.524	23.00
22.5852	24.00
22.6465	27.00
22.7078	31.00
22.769	59.00
22.8303	159.00
22.8916	269.00
22.9529	146.00
23.0141	76.00
23.0754	39.00
23.1367	22.00
23.198	18.00
23.2592	30.00
23.3205	21.00
23.3818	18.00
23.443	13.00
23.5043	21.00
23.5656	16.00
23.6269	30.00
23.6881	14.00
23.7494	28.00
23.8107	52.00
23.872	113.00
23.9332	76.00
23.9945	32.00
24.0558	34.00
24.117	29.00
24.1783	19.00
24.2396	22.00
24.3009	22.00
24.3621	16.00
24.4234	18.00
24.4847	19.00
24.546	18.00
24.6072	17.00
24.6685	13.00
24.7298	14.00
24.791	24.00
24.8523	13.00
24.9136	10.00
24.9749	17.00
25.0361	20.00
25.0974	21.00
25.1587	17.00
25.22	9.00
25.2812	17.00
25.3425	40.00
25.4038	81.00
25.465	92.00
25.5263	108.00
25.5876	86.00
25.6489	55.00
25.7101	30.00
25.7714	27.00
25.8327	24.00
25.894	15.00
25.9552	27.00
26.0165	15.00
26.0778	15.00
26.139	19.00
26.2003	14.00
26.2616	17.00
26.3229	21.00
26.3841	10.00
26.4454	12.00
26.5067	8.00
26.5679	28.00
26.6292	18.00
26.6905	25.00
26.7518	27.00
26.813	21.00
26.8743	26.00
26.9356	19.00
26.9969	20.00
27.0581	19.00
27.1194	18.00
27.1807	21.00
27.2419	27.00
27.3032	14.00
27.3645	26.00
27.4258	18.00
27.487	28.00
27.5483	40.00
27.6096	46.00
27.6709	78.00
27.7321	49.00
27.7934	20.00
27.8547	16.00
27.9159	31.00
27.9772	29.00
28.0385	20.00
28.0998	30.00
28.161	71.00
28.2223	50.00
28.2836	38.00
28.3449	30.00
28.4061	27.00
28.4674	23.00
28.5287	15.00
28.5899	21.00
28.6512	26.00
28.7125	25.00
28.7738	10.00
28.835	16.00
28.8963	25.00
28.9576	16.00
29.0189	25.00
29.0801	19.00
29.1414	22.00
29.2027	22.00
29.2639	23.00
29.3252	26.00
29.3865	26.00
29.4478	25.00
29.509	30.00
29.5703	28.00
29.6316	55.00
29.6928	79.00
29.7541	100.00
29.8154	177.00
29.8767	222.00
29.9379	148.00
29.9992	88.00
30.0605	47.00
30.1218	45.00
30.183	42.00
30.2443	53.00
30.3056	57.00
30.3668	104.00
30.4281	63.00
30.4894	52.00
30.5507	26.00
30.6119	29.00
30.6732	23.00
30.7345	28.00
30.7958	39.00
30.857	75.00
30.9183	76.00
30.9796	66.00
31.0408	67.00
31.1021	93.00
31.1634	60.00
31.2247	34.00
31.2859	35.00
31.3472	23.00
31.4085	23.00
31.4698	31.00
31.531	28.00
31.5923	21.00
31.6536	19.00
31.7148	29.00
31.7761	28.00
31.8374	25.00
31.8987	26.00
31.9599	19.00
32.0212	33.00
32.0825	38.00
32.1438	53.00
32.205	94.00
32.2663	355.00
32.3276	312.00
32.3888	239.00
32.4501	112.00
32.5114	50.00
32.5727	48.00
32.6339	36.00
32.6952	27.00
32.7565	37.00
32.8178	34.00
32.879	30.00
32.9403	30.00
33.0016	30.00
33.0628	36.00
33.1241	68.00
33.1854	66.00
33.2467	60.00
33.3079	34.00
33.3692	25.00
33.4305	20.00
33.4917	30.00
33.553	26.00
33.6143	16.00
33.6756	25.00
33.7368	24.00
33.7981	24.00
33.8594	33.00
33.9207	19.00
33.9819	20.00
34.0432	16.00
34.1045	25.00
34.1657	21.00
34.227	17.00
34.2883	23.00
34.3496	18.00
34.4108	20.00
34.4721	30.00
34.5334	29.00
34.5947	22.00
34.6559	30.00
34.7172	25.00
34.7785	32.00
34.8397	42.00
34.901	46.00
34.9623	49.00
35.0236	61.00
35.0848	48.00
35.1461	50.00
35.2074	54.00
35.2687	53.00
35.3299	61.00
35.3912	77.00
35.4525	168.00
35.5137	197.00
35.575	230.00
35.6363	368.00
35.6976	531.00
35.7588	490.00
35.8201	274.00
35.8814	161.00
35.9427	105.00
36.0039	64.00
36.0652	68.00
36.1265	59.00
36.1877	49.00
36.249	60.00
36.3103	78.00
36.3716	131.00
36.4328	239.00
36.4941	481.00
36.5554	396.00
36.6166	304.00
36.6779	157.00
36.7392	102.00
36.8005	76.00
36.8617	47.00
36.923	46.00
36.9843	41.00
37.0456	36.00
37.1068	24.00
37.1681	30.00
37.2294	31.00
37.2906	23.00
37.3519	24.00
37.4132	32.00
37.4745	18.00
37.5357	24.00
37.597	20.00
37.6583	26.00
37.7196	35.00
37.7808	19.00
37.8421	33.00
37.9034	19.00
37.9646	19.00
38.0259	29.00
38.0872	26.00
38.1485	20.00
38.2097	49.00
38.271	77.00
38.3323	76.00
38.3936	75.00
38.4548	53.00
38.5161	34.00
38.5774	26.00
38.6386	32.00
38.6999	24.00
38.7612	64.00
38.8225	88.00
38.8837	66.00
38.945	57.00
39.0063	44.00
39.0676	45.00
39.1288	49.00
39.1901	63.00
39.2514	50.00
39.3126	40.00
39.3739	43.00
39.4352	51.00
39.4965	63.00
39.5577	79.00
39.619	170.00
39.6803	252.00
39.7416	212.00
39.8028	167.00
39.8641	122.00
39.9254	92.00
39.9866	196.00
40.0479	215.00
40.1092	194.00
40.1705	108.00
40.2317	84.00
40.293	56.00
40.3543	40.00
40.4155	36.00
40.4768	31.00
40.5381	27.00
40.5994	48.00
40.6606	43.00
40.7219	24.00
40.7832	42.00
40.8445	53.00
40.9057	36.00
40.967	47.00
41.0283	45.00
41.0895	31.00
41.1508	24.00
41.2121	28.00
41.2734	25.00
41.3346	23.00
41.3959	30.00
41.4572	23.00
41.5185	27.00
41.5797	38.00
41.641	41.00
41.7023	114.00
41.7635	150.00
41.8248	106.00
41.8861	92.00
41.9474	66.00
42.0086	57.00
42.0699	41.00
42.1312	47.00
42.1925	28.00
42.2537	34.00
42.315	40.00
42.3763	42.00
42.4375	76.00
42.4988	41.00
42.5601	40.00
42.6214	33.00
42.6826	41.00
42.7439	26.00
42.8052	24.00
42.8665	28.00
42.9277	43.00
42.989	40.00
43.0503	31.00
43.1115	26.00
43.1728	37.00
43.2341	33.00
43.2954	30.00
43.3566	43.00
43.4179	25.00
43.4792	27.00
43.5404	20.00
43.6017	24.00
43.663	13.00
43.7243	23.00
43.7855	15.00
43.8468	20.00
43.9081	16.00
43.9694	27.00
44.0306	22.00
44.0919	26.00
44.1532	30.00
44.2144	35.00
44.2757	21.00
44.337	38.00
44.3983	55.00
44.4595	65.00
44.5208	63.00
44.5821	52.00
44.6434	47.00
44.7046	39.00
44.7659	27.00
44.8272	37.00
44.8884	40.00
44.9497	33.00
45.011	33.00
45.0723	46.00
45.1335	25.00
45.1948	36.00
45.2561	18.00
45.3174	28.00
45.3786	22.00
45.4399	20.00
45.5012	17.00
45.5624	17.00
45.6237	26.00
45.685	15.00
45.7463	21.00
45.8075	24.00
45.8688	24.00
45.9301	30.00
45.9914	22.00
46.0526	20.00
46.1139	32.00
46.1752	26.00
46.2364	25.00
46.2977	19.00
46.359	23.00
46.4203	32.00
46.4815	54.00
46.5428	30.00
46.6041	38.00
46.6654	34.00
46.7266	22.00
46.7879	30.00
46.8492	22.00
46.9104	24.00
46.9717	32.00
47.033	18.00
47.0943	14.00
47.1555	26.00
47.2168	21.00
47.2781	16.00
47.3393	17.00
47.4006	20.00
47.4619	23.00
47.5232	20.00
47.5844	26.00
47.6457	11.00
47.707	13.00
47.7683	14.00
47.8295	22.00
47.8908	22.00
47.9521	19.00
48.0133	18.00
48.0746	18.00
48.1359	12.00
48.1972	16.00
48.2584	26.00
48.3197	27.00
48.381	56.00
48.4423	60.00
48.5035	58.00
48.5648	55.00
48.6261	36.00
48.6873	29.00
48.7486	21.00
48.8099	27.00
48.8712	34.00
48.9324	37.00
48.9937	34.00
49.055	35.00
49.1163	25.00
49.1775	27.00
49.2388	43.00
49.3001	29.00
49.3613	40.00
49.4226	37.00
49.4839	48.00
49.5452	35.00
49.6064	39.00
49.6677	45.00
49.729	53.00
49.7903	36.00
49.8515	50.00
49.9128	35.00
49.9741	44.00
50.0353	33.00
50.0966	21.00
50.1579	22.00
50.2192	20.00
50.2804	48.00
50.3417	44.00
50.403	47.00
50.4642	32.00
50.5255	27.00
50.5868	25.00
50.6481	21.00
50.7093	30.00
50.7706	26.00
50.8319	28.00
50.8932	32.00
50.9544	45.00
51.0157	26.00
51.077	46.00
51.1382	41.00
51.1995	27.00
51.2608	25.00
51.3221	25.00
51.3833	26.00
51.4446	26.00
51.5059	24.00
51.5672	26.00
51.6284	34.00
51.6897	26.00
51.751	26.00
51.8122	32.00
51.8735	43.00
51.9348	46.00
51.9961	66.00
52.0573	85.00
52.1186	156.00
52.1799	339.00
52.2412	344.00
52.3024	347.00
52.3637	313.00
52.425	246.00
52.4862	241.00
52.5475	197.00
52.6088	156.00
52.6701	108.00
52.7313	98.00
52.7926	90.00
52.8539	60.00
52.9152	46.00
52.9764	58.00
53.0377	46.00
53.099	42.00
53.1602	45.00
53.2215	40.00
53.2828	30.00
53.3441	25.00
53.4053	36.00
53.4666	31.00
53.5279	30.00
53.5892	28.00
53.6504	31.00
53.7117	31.00
53.773	32.00
53.8342	40.00
53.8955	40.00
53.9568	39.00
54.0181	48.00
54.0793	62.00
54.1406	41.00
54.2019	45.00
54.2631	35.00
54.3244	29.00
54.3857	33.00
54.447	35.00
54.5082	32.00
54.5695	39.00
54.6308	53.00
54.6921	42.00
54.7533	53.00
54.8146	92.00
54.8759	117.00
54.9371	80.00
54.9984	98.00
55.0597	82.00
55.121	68.00
55.1822	47.00
55.2435	41.00
55.3048	28.00
55.3661	34.00
55.4273	28.00
55.4886	35.00
55.5499	26.00
55.6111	28.00
55.6724	23.00
55.7337	35.00
55.795	34.00
55.8562	31.00
55.9175	51.00
55.9788	52.00
56.0401	122.00
56.1013	159.00
56.1626	111.00
56.2239	144.00
56.2851	104.00
56.3464	104.00
56.4077	66.00
56.469	67.00
56.5302	81.00
56.5915	87.00
56.6528	99.00
56.7141	101.00
56.7753	126.00
56.8366	138.00
56.8979	133.00
56.9591	132.00
57.0204	85.00
57.0817	86.00
57.143	79.00
57.2042	66.00
57.2655	70.00
57.3268	46.00
57.388	37.00
57.4493	58.00
57.5106	50.00
57.5719	47.00
57.6331	33.00
57.6944	34.00
57.7557	30.00
57.817	50.00
57.8782	43.00
57.9395	43.00
58.0008	43.00
58.062	54.00
58.1233	47.00
58.1846	44.00
58.2459	34.00
58.3071	27.00
58.3684	31.00
58.4297	39.00
58.491	35.00
58.5522	51.00
58.6135	70.00
58.6748	69.00
58.736	73.00
58.7973	89.00
58.8586	76.00
58.9199	65.00
58.9811	50.00
59.0424	49.00
59.1037	35.00
59.165	42.00
59.2262	29.00
59.2875	44.00
59.3488	33.00
59.41	31.00
59.4713	35.00
59.5326	39.00
59.5939	32.00
59.6551	30.00
59.7164	30.00
59.7777	31.00
59.839	24.00
59.9002	37.00
59.9615	31.00
60.0228	23.00
60.084	37.00
60.1453	28.00
60.2066	53.00
60.2679	32.00
60.3291	36.00
60.3904	47.00
60.4517	45.00
60.513	46.00
60.5742	54.00
60.6355	54.00
60.6968	66.00
60.758	64.00
60.8193	59.00
60.8806	68.00
60.9419	62.00
61.0031	58.00
61.0644	86.00
61.1257	94.00
61.1869	77.00
61.2482	75.00
61.3095	68.00
61.3708	63.00
61.432	72.00
61.4933	90.00
61.5546	95.00
61.6159	94.00
61.6771	74.00
61.7384	135.00
61.7997	123.00
61.8609	149.00
61.9222	199.00
61.9835	187.00
62.0448	174.00
62.106	147.00
62.1673	123.00
62.2286	122.00
62.2899	95.00
62.3511	104.00
62.4124	111.00
62.4737	120.00
62.5349	129.00
62.5962	154.00
62.6575	273.00
62.7188	306.00
62.78	216.00
62.8413	256.00
62.9026	219.00
62.9639	164.00
63.0251	112.00
63.0864	101.00
63.1477	78.00
63.2089	80.00
63.2702	64.00
63.3315	56.00
63.3928	62.00
63.454	48.00
63.5153	50.00
63.5766	44.00
63.6379	40.00
63.6991	40.00
63.7604	44.00
63.8217	55.00
63.8829	34.00
63.9442	44.00
64.0055	55.00
64.0668	37.00
64.128	39.00
64.1893	42.00
64.2506	25.00
64.3118	28.00
64.3731	35.00
64.4344	32.00
64.4957	43.00
64.5569	40.00
64.6182	27.00
64.6795	35.00
64.7408	50.00
64.802	48.00
64.8633	38.00
64.9246	56.00
64.9858	46.00
65.0471	40.00
65.1084	41.00
65.1697	32.00
65.2309	27.00
65.2922	24.00
65.3535	42.00
65.4148	32.00
65.476	46.00
65.5373	55.00
65.5986	39.00
65.6598	50.00
65.7211	52.00
65.7824	86.00
65.8437	87.00
65.9049	57.00
65.9662	55.00
66.0275	57.00
66.0888	46.00
66.15	39.00
66.2113	41.00
66.2726	52.00
66.3338	44.00
66.3951	36.00
66.4564	37.00
66.5177	42.00
66.5789	60.00
66.6402	49.00
66.7015	41.00
66.7628	76.00
66.824	94.00
66.8853	88.00
66.9466	92.00
67.0078	120.00
67.0691	122.00
67.1304	109.00
67.1917	111.00
67.2529	88.00
67.3142	104.00
67.3755	105.00
67.4368	103.00
67.498	71.00
67.5593	65.00
67.6206	51.00
67.6818	43.00
67.7431	38.00
67.8044	34.00
67.8657	37.00
67.9269	34.00
67.9882	28.00
68.0495	35.00
68.1107	33.00
68.172	37.00
68.2333	32.00
68.2946	43.00
68.3558	27.00
68.4171	41.00
68.4784	24.00
68.5397	30.00
68.6009	27.00
68.6622	38.00
68.7235	33.00
68.7847	21.00
68.846	36.00
68.9073	39.00
68.9686	32.00
69.0298	42.00
69.0911	33.00
69.1524	49.00
69.2137	40.00
69.2749	46.00
69.3362	71.00
69.3975	100.00
69.4587	151.00
69.52	139.00
69.5813	128.00
69.6426	136.00
69.7038	126.00
69.7651	123.00
69.8264	84.00
69.8877	75.00
69.9489	63.00
70.0102	54.00