File: XRD Spectra/MS01BRED.txt
MS01BRED
Wavelength = 1.54059
5	7.00
5.0613	14.00
5.1226	12.00
5.1838	13.00
5.2451	15.00
5.3064	10.00
5.3676	11.00
5.4289	10.00
5.4902	16.00
5.5515	2.00
5.6127	8.00
5.674	9.00
5.7353	7.00
5.7965	9.00
5.8578	7.00
5.9191	13.00
5.9804	8.00
6.0416	7.00
6.1029	11.00
6.1642	9.00
6.2255	9.00
6.2867	11.00
6.348	11.00
6.4093	9.00
6.4705	12.00
6.5318	11.00
6.5931	8.00
6.6544	7.00
6.7156	15.00
6.7769	16.00
6.8382	7.00
6.8995	7.00
6.9607	11.00
7.022	5.00
7.0833	14.00
7.1445	12.00
7.2058	12.00
7.2671	15.00
7.3284	7.00
7.3896	12.00
7.4509	16.00
7.5122	9.00
7.5735	9.00
7.6347	13.00
7.696	11.00
7.7573	13.00
7.8185	11.00
7.8798	12.00
7.9411	17.00
8.0024	15.00
8.0636	13.00
8.1249	10.00
8.1862	9.00
8.2475	13.00
8.3087	9.00
8.37	6.00
8.4313	9.00
8.4925	17.00
8.5538	14.00
8.6151	14.00
8.6764	19.00
8.7376	19.00
8.7989	12.00
8.8602	15.00
8.9214	16.00
8.9827	17.00
9.044	11.00
9.1053	20.00
9.1665	19.00
9.2278	16.00
9.2891	16.00
9.3504	16.00
9.4116	15.00
9.4729	19.00
9.5342	11.00
9.5954	23.00
9.6567	13.00
9.718	23.00
9.7793	10.00
9.8405	15.00
9.9018	18.00
9.9631	14.00
10.0244	13.00
10.0856	9.00
10.1469	14.00
10.2082	10.00
10.2694	10.00
10.3307	10.00
10.392	14.00
10.4533	10.00
10.5145	16.00
10.5758	18.00
10.6371	10.00
10.6984	9.00
10.7596	19.00
10.8209	13.00
10.8822	12.00
10.9434	12.00
11.0047	9.00
11.066	13.00
11.1273	10.00
11.1885	9.00
11.2498	14.00
11.3111	11.00
11.3724	12.00
11.4336	10.00
11.4949	16.00
11.5562	19.00
11.6174	17.00
11.6787	12.00
11.74	8.00
11.8013	12.00
11.8625	12.00
11.9238	22.00
11.9851	13.00
12.0464	20.00
12.1076	17.00
12.1689	13.00
12.2302	12.00
12.2914	12.00
12.3527	14.00
12.414	10.00
12.4753	13.00
12.5365	12.00
12.5978	20.00
12.6591	14.00
12.7203	9.00
12.7816	17.00
12.8429	14.00
12.9042	18.00
12.9654	10.00
13.0267	25.00
13.088	12.00
13.1493	15.00
13.2105	16.00
13.2718	15.00
13.3331	15.00
13.3943	10.00
13.4556	22.00
13.5169	14.00
13.5782	12.00
13.6394	20.00
13.7007	21.00
13.762	11.00
13.8233	14.00
13.8845	9.00
13.9458	13.00
14.0071	8.00
14.0683	22.00
14.1296	16.00
14.1909	17.00
14.2522	16.00
14.3134	15.00
14.3747	22.00
14.436	14.00
14.4973	13.00
14.5585	14.00
14.6198	19.00
14.6811	16.00
14.7423	16.00
14.8036	15.00
14.8649	11.00
14.9262	16.00
14.9874	14.00
15.0487	14.00
15.11	11.00
15.1713	20.00
15.2325	16.00
15.2938	16.00
15.3551	11.00
15.4163	15.00
15.4776	24.00
15.5389	14.00
15.6002	10.00
15.6614	9.00
15.7227	12.00
15.784	22.00
15.8452	19.00
15.9065	17.00
15.9678	21.00
16.0291	4.00
16.0903	15.00
16.1516	13.00
16.2129	9.00
16.2742	9.00
16.3354	13.00
16.3967	9.00
16.458	13.00
16.5192	14.00
16.5805	6.00
16.6418	11.00
16.7031	10.00
16.7643	15.00
16.8256	14.00
16.8869	12.00
16.9482	13.00
17.0094	12.00
17.0707	9.00
17.132	18.00
17.1932	14.00
17.2545	37.00
17.3158	58.00
17.3771	102.00
17.4383	47.00
17.4996	23.00
17.5609	13.00
17.6222	16.00
17.6834	17.00
17.7447	12.00
17.806	10.00
17.8672	14.00
17.9285	16.00
17.9898	18.00
18.0511	8.00
18.1123	13.00
18.1736	15.00
18.2349	15.00
18.2962	15.00
18.3574	16.00
18.4187	12.00
18.48	18.00
18.5412	16.00
18.6025	16.00
18.6638	14.00
18.7251	11.00
18.7863	14.00
18.8476	17.00
18.9089	14.00
18.9702	14.00
19.0314	11.00
19.0927	14.00
19.154	18.00
19.2152	19.00
19.2765	22.00
19.3378	23.00
19.3991	21.00
19.4603	20.00
19.5216	25.00
19.5829	24.00
19.6441	30.00
19.7054	23.00
19.7667	26.00
19.828	17.00
19.8892	21.00
19.9505	18.00
20.0118	17.00
20.0731	29.00
20.1343	22.00
20.1956	19.00
20.2569	17.00
20.3181	16.00
20.3794	21.00
20.4407	10.00
20.502	14.00
20.5632	29.00
20.6245	30.00
20.6858	27.00
20.7471	24.00
20.8083	21.00
20.8696	22.00
20.9309	18.00
20.9921	17.00
21.0534	12.00
21.1147	18.00
21.176	20.00
21.2372	18.00
21.2985	12.00
21.3598	24.00
21.4211	18.00
21.4823	15.00
21.5436	13.00
21.6049	18.00
21.6661	13.00
21.7274	14.00
21.7887	18.00
21.85	22.00
21.9112	22.00
21.9725	13.00
22.0338	16.00
22.0951	15.00
22.1563	15.00
22.2176	14.00
22.2789	19.00
22.3401	18.00
22.4014	19.00
22.4627	17.00
22.524	18.00
22.5852	20.00
22.6465	29.00
22.7078	33.00
22.769	65.00
22.8303	151.00
22.8916	307.00
22.9529	215.00
23.0141	99.00
23.0754	46.00
23.1367	31.00
23.198	34.00
23.2592	19.00
23.3205	26.00
23.3818	17.00
23.443	24.00
23.5043	25.00
23.5656	23.00
23.6269	31.00
23.6881	31.00
23.7494	30.00
23.8107	54.00
23.872	120.00
23.9332	88.00
23.9945	46.00
24.0558	28.00
24.117	33.00
24.1783	39.00
24.2396	43.00
24.3009	27.00
24.3621	23.00
24.4234	33.00
24.4847	21.00
24.546	21.00
24.6072	17.00
24.6685	18.00
24.7298	20.00
24.791	17.00
24.8523	19.00
24.9136	17.00
24.9749	17.00
25.0361	21.00
25.0974	25.00
25.1587	13.00
25.22	22.00
25.2812	32.00
25.3425	28.00
25.4038	63.00
25.465	87.00
25.5263	89.00
25.5876	101.00
25.6489	77.00
25.7101	42.00
25.7714	32.00
25.8327	20.00
25.894	22.00
25.9552	24.00
26.0165	20.00
26.0778	20.00
26.139	19.00
26.2003	20.00
26.2616	23.00
26.3229	43.00
26.3841	30.00
26.4454	29.00
26.5067	25.00
26.5679	21.00
26.6292	25.00
26.6905	27.00
26.7518	28.00
26.813	20.00
26.8743	23.00
26.9356	22.00
26.9969	23.00
27.0581	23.00
27.1194	22.00
27.1807	27.00
27.2419	35.00
27.3032	30.00
27.3645	21.00
27.4258	30.00
27.487	32.00
27.5483	26.00
27.6096	46.00
27.6709	31.00
27.7321	31.00
27.7934	33.00
27.8547	24.00
27.9159	31.00
27.9772	25.00
28.0385	30.00
28.0998	32.00
28.161	38.00
28.2223	40.00
28.2836	38.00
28.3449	29.00
28.4061	32.00
28.4674	28.00
28.5287	57.00
28.5899	43.00
28.6512	43.00
28.7125	34.00
28.7738	37.00
28.835	33.00
28.8963	23.00
28.9576	22.00
29.0189	25.00
29.0801	28.00
29.1414	35.00
29.2027	32.00
29.2639	27.00
29.3252	38.00
29.3865	26.00
29.4478	26.00
29.509	40.00
29.5703	36.00
29.6316	53.00
29.6928	77.00
29.7541	70.00
29.8154	175.00
29.8767	254.00
29.9379	132.00
29.9992	70.00
30.0605	50.00
30.1218	58.00
30.183	47.00
30.2443	36.00
30.3056	61.00
30.3668	89.00
30.4281	80.00
30.4894	29.00
30.5507	30.00
30.6119	37.00
30.6732	27.00
30.7345	20.00
30.7958	30.00
30.857	56.00
30.9183	45.00
30.9796	46.00
31.0408	41.00
31.1021	34.00
31.1634	39.00
31.2247	28.00
31.2859	21.00
31.3472	29.00
31.4085	23.00
31.4698	20.00
31.531	19.00
31.5923	16.00
31.6536	24.00
31.7148	34.00
31.7761	27.00
31.8374	35.00
31.8987	24.00
31.9599	38.00
32.0212	35.00
32.0825	40.00
32.1438	38.00
32.205	87.00
32.2663	201.00
32.3276	342.00
32.3888	265.00
32.4501	127.00
32.5114	78.00
32.5727	51.00
32.6339	37.00
32.6952	44.00
32.7565	34.00
32.8178	37.00
32.879	34.00
32.9403	31.00
33.0016	30.00
33.0628	62.00
33.1241	55.00
33.1854	69.00
33.2467	59.00
33.3079	41.00
33.3692	29.00
33.4305	23.00
33.4917	29.00
33.553	28.00
33.6143	23.00
33.6756	14.00
33.7368	17.00
33.7981	31.00
33.8594	39.00
33.9207	34.00
33.9819	27.00
34.0432	31.00
34.1045	38.00
34.1657	32.00
34.227	29.00
34.2883	30.00
34.3496	20.00
34.4108	32.00
34.4721	42.00
34.5334	37.00
34.5947	48.00
34.6559	40.00
34.7172	42.00
34.7785	49.00
34.8397	38.00
34.901	52.00
34.9623	58.00
35.0236	65.00
35.0848	57.00
35.1461	60.00
35.2074	43.00
35.2687	57.00
35.3299	57.00
35.3912	107.00
35.4525	135.00
35.5137	191.00
35.575	204.00
35.6363	278.00
35.6976	503.00
35.7588	442.00
35.8201	385.00
35.8814	181.00
35.9427	108.00
36.0039	85.00
36.0652	97.00
36.1265	71.00
36.1877	85.00
36.249	85.00
36.3103	94.00
36.3716	128.00
36.4328	256.00
36.4941	433.00
36.5554	509.00
36.6166	406.00
36.6779	224.00
36.7392	142.00
36.8005	70.00
36.8617	64.00
36.923	53.00
36.9843	55.00
37.0456	53.00
37.1068	40.00
37.1681	38.00
37.2294	35.00
37.2906	29.00
37.3519	33.00
37.4132	51.00
37.4745	27.00
37.5357	27.00
37.597	29.00
37.6583	25.00
37.7196	24.00
37.7808	25.00
37.8421	30.00
37.9034	35.00
37.9646	28.00
38.0259	36.00
38.0872	29.00
38.1485	32.00
38.2097	37.00
38.271	77.00
38.3323	86.00
38.3936	78.00
38.4548	65.00
38.5161	57.00
38.5774	43.00
38.6386	38.00
38.6999	43.00
38.7612	69.00
38.8225	115.00
38.8837	76.00
38.945	58.00
39.0063	51.00
39.0676	36.00
39.1288	31.00
39.1901	44.00
39.2514	34.00
39.3126	45.00
39.3739	45.00
39.4352	46.00
39.4965	60.00
39.5577	80.00
39.619	160.00
39.6803	255.00
39.7416	268.00
39.8028	219.00
39.8641	139.00
39.9254	104.00
39.9866	150.00
40.0479	274.00
40.1092	214.00
40.1705	155.00
40.2317	108.00
40.293	57.00
40.3543	47.00
40.4155	42.00
40.4768	30.00
40.5381	36.00
40.5994	34.00
40.6606	48.00
40.7219	41.00
40.7832	32.00
40.8445	52.00
40.9057	45.00
40.967	51.00
41.0283	51.00
41.0895	24.00
41.1508	39.00
41.2121	32.00
41.2734	32.00
41.3346	44.00
41.3959	22.00
41.4572	31.00
41.5185	31.00
41.5797	43.00
41.641	45.00
41.7023	103.00
41.7635	130.00
41.8248	115.00
41.8861	89.00
41.9474	47.00
42.0086	49.00
42.0699	44.00
42.1312	32.00
42.1925	23.00
42.2537	34.00
42.315	34.00
42.3763	39.00
42.4375	47.00
42.4988	29.00
42.5601	38.00
42.6214	31.00
42.6826	25.00
42.7439	30.00
42.8052	31.00
42.8665	35.00
42.9277	28.00
42.989	35.00
43.0503	35.00
43.1115	48.00
43.1728	38.00
43.2341	40.00
43.2954	25.00
43.3566	31.00
43.4179	24.00
43.4792	27.00
43.5404	32.00
43.6017	18.00
43.663	20.00
43.7243	28.00
43.7855	36.00
43.8468	25.00
43.9081	25.00
43.9694	17.00
44.0306	19.00
44.0919	20.00
44.1532	18.00
44.2144	18.00
44.2757	25.00
44.337	34.00
44.3983	41.00
44.4595	57.00
44.5208	52.00
44.5821	55.00
44.6434	46.00
44.7046	39.00
44.7659	29.00
44.8272	24.00
44.8884	46.00
44.9497	34.00
45.011	25.00
45.0723	32.00
45.1335	29.00
45.1948	26.00
45.2561	22.00
45.3174	21.00
45.3786	24.00
45.4399	11.00
45.5012	20.00
45.5624	23.00
45.6237	15.00
45.685	22.00
45.7463	26.00
45.8075	34.00
45.8688	20.00
45.9301	13.00
45.9914	24.00
46.0526	27.00
46.1139	30.00
46.1752	26.00
46.2364	19.00
46.2977	17.00
46.359	21.00
46.4203	34.00
46.4815	33.00
46.5428	35.00
46.6041	38.00
46.6654	40.00
46.7266	43.00
46.7879	40.00
46.8492	35.00
46.9104	27.00
46.9717	30.00
47.033	22.00
47.0943	21.00
47.1555	29.00
47.2168	25.00
47.2781	19.00
47.3393	19.00
47.4006	17.00
47.4619	21.00
47.5232	24.00
47.5844	22.00
47.6457	23.00
47.707	25.00
47.7683	20.00
47.8295	19.00
47.8908	17.00
47.9521	23.00
48.0133	21.00
48.0746	22.00
48.1359	38.00
48.1972	24.00
48.2584	24.00
48.3197	30.00
48.381	32.00
48.4423	52.00
48.5035	40.00
48.5648	56.00
48.6261	45.00
48.6873	32.00
48.7486	38.00
48.8099	34.00
48.8712	45.00
48.9324	51.00
48.9937	46.00
49.055	41.00
49.1163	32.00
49.1775	23.00
49.2388	31.00
49.3001	25.00
49.3613	37.00
49.4226	38.00
49.4839	40.00
49.5452	41.00
49.6064	43.00
49.6677	27.00
49.729	45.00
49.7903	31.00
49.8515	30.00
49.9128	37.00
49.9741	27.00
50.0353	33.00
50.0966	24.00
50.1579	33.00
50.2192	23.00
50.2804	37.00
50.3417	51.00
50.403	45.00
50.4642	34.00
50.5255	43.00
50.5868	36.00
50.6481	39.00
50.7093	37.00
50.7706	23.00
50.8319	26.00
50.8932	47.00
50.9544	43.00
51.0157	38.00
51.077	44.00
51.1382	35.00
51.1995	46.00
51.2608	39.00
51.3221	25.00
51.3833	30.00
51.4446	36.00
51.5059	24.00
51.5672	46.00
51.6284	33.00
51.6897	36.00
51.751	40.00
51.8122	53.00
51.8735	39.00
51.9348	58.00
51.9961	65.00
52.0573	91.00
52.1186	135.00
52.1799	292.00
52.2412	414.00
52.3024	404.00
52.3637	331.00
52.425	251.00
52.4862	247.00
52.5475	236.00
52.6088	168.00
52.6701	141.00
52.7313	110.00
52.7926	79.00
52.8539	66.00
52.9152	59.00
52.9764	66.00
53.0377	59.00
53.099	44.00
53.1602	45.00
53.2215	40.00
53.2828	40.00
53.3441	28.00
53.4053	28.00
53.4666	51.00
53.5279	51.00
53.5892	47.00
53.6504	53.00
53.7117	46.00
53.773	32.00
53.8342	45.00
53.8955	47.00
53.9568	47.00
54.0181	41.00
54.0793	53.00
54.1406	50.00
54.2019	51.00
54.2631	42.00
54.3244	52.00
54.3857	44.00
54.447	36.00
54.5082	36.00
54.5695	39.00
54.6308	38.00
54.6921	52.00
54.7533	52.00
54.8146	75.00
54.8759	99.00
54.9371	111.00
54.9984	93.00
55.0597	86.00
55.121	61.00
55.1822	34.00
55.2435	41.00
55.3048	37.00
55.3661	36.00
55.4273	40.00
55.4886	23.00
55.5499	33.00
55.6111	39.00
55.6724	38.00
55.7337	40.00
55.795	42.00
55.8562	41.00
55.9175	41.00
55.9788	48.00
56.0401	55.00
56.1013	96.00
56.1626	106.00
56.2239	110.00
56.2851	113.00
56.3464	98.00
56.4077	87.00
56.469	81.00
56.5302	82.00
56.5915	65.00
56.6528	77.00
56.7141	75.00
56.7753	114.00
56.8366	133.00
56.8979	151.00
56.9591	142.00
57.0204	118.00
57.0817	108.00
57.143	67.00
57.2042	69.00
57.2655	52.00
57.3268	40.00
57.388	41.00
57.4493	44.00
57.5106	47.00
57.5719	40.00
57.6331	45.00
57.6944	40.00
57.7557	27.00
57.817	40.00
57.8782	35.00
57.9395	44.00
58.0008	61.00
58.062	42.00
58.1233	49.00
58.1846	51.00
58.2459	41.00
58.3071	38.00
58.3684	52.00
58.4297	35.00
58.491	52.00
58.5522	47.00
58.6135	71.00
58.6748	102.00
58.736	97.00
58.7973	105.00
58.8586	92.00
58.9199	70.00
58.9811	65.00
59.0424	43.00
59.1037	57.00
59.165	40.00
59.2262	38.00
59.2875	36.00
59.3488	37.00
59.41	39.00
59.4713	34.00
59.5326	38.00
59.5939	35.00
59.6551	32.00
59.7164	48.00
59.7777	44.00
59.839	42.00
59.9002	39.00
59.9615	41.00
60.0228	41.00
60.084	52.00
60.1453	41.00
60.2066	37.00
60.2679	56.00
60.3291	66.00
60.3904	57.00
60.4517	73.00
60.513	52.00
60.5742	56.00
60.6355	60.00
60.6968	63.00
60.758	63.00
60.8193	64.00
60.8806	64.00
60.9419	71.00
61.0031	76.00
61.0644	91.00
61.1257	109.00
61.1869	88.00
61.2482	96.00
61.3095	87.00
61.3708	73.00
61.432	85.00
61.4933	80.00
61.5546	88.00
61.6159	117.00
61.6771	96.00
61.7384	103.00
61.7997	120.00
61.8609	137.00
61.9222	180.00
61.9835	225.00
62.0448	194.00
62.106	191.00
62.1673	164.00
62.2286	157.00
62.2899	111.00
62.3511	95.00
62.4124	106.00
62.4737	86.00
62.5349	94.00
62.5962	132.00
62.6575	151.00
62.7188	203.00
62.78	261.00
62.8413	245.00
62.9026	221.00
62.9639	194.00
63.0251	175.00
63.0864	119.00
63.1477	83.00
63.2089	81.00
63.2702	67.00
63.3315	44.00
63.3928	60.00
63.454	69.00
63.5153	63.00
63.5766	54.00
63.6379	56.00
63.6991	55.00
63.7604	44.00
63.8217	40.00
63.8829	59.00
63.9442	42.00
64.0055	56.00
64.0668	46.00
64.128	48.00
64.1893	50.00
64.2506	40.00
64.3118	41.00
64.3731	34.00
64.4344	31.00
64.4957	45.00
64.5569	45.00
64.6182	45.00
64.6795	54.00
64.7408	43.00
64.802	58.00
64.8633	58.00
64.9246	60.00
64.9858	55.00
65.0471	40.00
65.1084	41.00
65.1697	31.00
65.2309	29.00
65.2922	35.00
65.3535	25.00
65.4148	41.00
65.476	38.00
65.5373	43.00
65.5986	53.00
65.6598	39.00
65.7211	41.00
65.7824	53.00
65.8437	41.00
65.9049	41.00
65.9662	34.00
66.0275	30.00
66.0888	29.00
66.15	36.00
66.2113	43.00
66.2726	42.00
66.3338	32.00
66.3951	46.00
66.4564	35.00
66.5177	43.00
66.5789	44.00
66.6402	58.00
66.7015	51.00
66.7628	40.00
66.824	91.00
66.8853	90.00
66.9466	93.00
67.0078	104.00
67.0691	128.00
67.1304	122.00
67.1917	114.00
67.2529	87.00
67.3142	102.00
67.3755	113.00
67.4368	91.00
67.498	66.00
67.5593	69.00
67.6206	63.00
67.6818	70.00
67.7431	49.00
67.8044	39.00
67.8657	35.00
67.9269	37.00
67.9882	43.00
68.0495	41.00
68.1107	38.00
68.172	28.00
68.2333	42.00
68.2946	47.00
68.3558	47.00
68.4171	58.00
68.4784	42.00
68.5397	39.00
68.6009	59.00
68.6622	28.00
68.7235	39.00
68.7847	41.00
68.846	47.00
68.9073	33.00
68.9686	39.00
69.0298	37.00
69.0911	51.00
69.1524	38.00
69.2137	53.00
69.2749	58.00
69.3362	69.00
69.3975	93.00
69.4587	189.00
69.52	179.00
69.5813	137.00
69.6426	160.00
69.7038	155.00
69.7651	138.00
69.8264	87.00
69.8877	82.00
69.9489	80.00
70.0102	55.00