File: XRD Spectra/MS02B.txt
MS02B
Wavelength = 1.54059
5	7.00
5.0613	8.00
5.1226	8.00
5.1838	8.00
5.2451	11.00
5.3064	5.00
5.3676	12.00
5.4289	2.00
5.4902	6.00
5.5515	8.00
5.6127	7.00
5.674	8.00
5.7353	9.00
5.7965	11.00
5.8578	9.00
5.9191	11.00
5.9804	5.00
6.0416	8.00
6.1029	10.00
6.1642	4.00
6.2255	7.00
6.2867	6.00
6.348	9.00
6.4093	8.00
6.4705	11.00
6.5318	11.00
6.5931	7.00
6.6544	8.00
6.7156	9.00
6.7769	12.00
6.8382	2.00
6.8995	6.00
6.9607	8.00
7.022	7.00
7.0833	10.00
7.1445	9.00
7.2058	8.00
7.2671	11.00
7.3284	6.00
7.3896	8.00
7.4509	11.00
7.5122	7.00
7.5735	9.00
7.6347	9.00
7.696	10.00
7.7573	4.00
7.8185	8.00
7.8798	9.00
7.9411	10.00
8.0024	9.00
8.0636	16.00
8.1249	8.00
8.1862	14.00
8.2475	13.00
8.3087	9.00
8.37	9.00
8.4313	7.00
8.4925	10.00
8.5538	9.00
8.6151	6.00
8.6764	8.00
8.7376	10.00
8.7989	7.00
8.8602	8.00
8.9214	9.00
8.9827	9.00
9.044	13.00
9.1053	9.00
9.1665	11.00
9.2278	9.00
9.2891	12.00
9.3504	10.00
9.4116	10.00
9.4729	15.00
9.5342	11.00
9.5954	11.00
9.6567	15.00
9.718	18.00
9.7793	7.00
9.8405	13.00
9.9018	12.00
9.9631	11.00
10.0244	13.00
10.0856	13.00
10.1469	9.00
10.2082	16.00
10.2694	12.00
10.3307	8.00
10.392	19.00
10.4533	18.00
10.5145	21.00
10.5758	15.00
10.6371	14.00
10.6984	11.00
10.7596	14.00
10.8209	19.00
10.8822	17.00
10.9434	17.00
11.0047	20.00
11.066	17.00
11.1273	14.00
11.1885	17.00
11.2498	17.00
11.3111	21.00
11.3724	18.00
11.4336	15.00
11.4949	24.00
11.5562	18.00
11.6174	24.00
11.6787	28.00
11.74	24.00
11.8013	27.00
11.8625	34.00
11.9238	53.00
11.9851	65.00
12.0464	101.00
12.1076	179.00
12.1689	555.00
12.2302	517.00
12.2914	159.00
12.3527	112.00
12.414	81.00
12.4753	61.00
12.5365	39.00
12.5978	33.00
12.6591	29.00
12.7203	24.00
12.7816	35.00
12.8429	22.00
12.9042	21.00
12.9654	21.00
13.0267	27.00
13.088	14.00
13.1493	16.00
13.2105	11.00
13.2718	22.00
13.3331	17.00
13.3943	20.00
13.4556	24.00
13.5169	28.00
13.5782	20.00
13.6394	28.00
13.7007	20.00
13.762	33.00
13.8233	24.00
13.8845	19.00
13.9458	27.00
14.0071	21.00
14.0683	24.00
14.1296	12.00
14.1909	17.00
14.2522	23.00
14.3134	16.00
14.3747	15.00
14.436	16.00
14.4973	19.00
14.5585	16.00
14.6198	11.00
14.6811	11.00
14.7423	15.00
14.8036	12.00
14.8649	18.00
14.9262	15.00
14.9874	26.00
15.0487	18.00
15.11	13.00
15.1713	11.00
15.2325	9.00
15.2938	19.00
15.3551	17.00
15.4163	13.00
15.4776	12.00
15.5389	19.00
15.6002	16.00
15.6614	16.00
15.7227	12.00
15.784	15.00
15.8452	17.00
15.9065	14.00
15.9678	14.00
16.0291	20.00
16.0903	17.00
16.1516	16.00
16.2129	16.00
16.2742	13.00
16.3354	16.00
16.3967	13.00
16.458	20.00
16.5192	17.00
16.5805	17.00
16.6418	21.00
16.7031	16.00
16.7643	15.00
16.8256	10.00
16.8869	9.00
16.9482	8.00
17.0094	15.00
17.0707	24.00
17.132	16.00
17.1932	20.00
17.2545	17.00
17.3158	48.00
17.3771	35.00
17.4383	16.00
17.4996	17.00
17.5609	14.00
17.6222	17.00
17.6834	13.00
17.7447	7.00
17.806	11.00
17.8672	15.00
17.9285	8.00
17.9898	11.00
18.0511	11.00
18.1123	11.00
18.1736	17.00
18.2349	15.00
18.2962	18.00
18.3574	17.00
18.4187	13.00
18.48	11.00
18.5412	10.00
18.6025	19.00
18.6638	17.00
18.7251	17.00
18.7863	16.00
18.8476	27.00
18.9089	23.00
18.9702	20.00
19.0314	30.00
19.0927	22.00
19.154	31.00
19.2152	47.00
19.2765	36.00
19.3378	38.00
19.3991	38.00
19.4603	33.00
19.5216	32.00
19.5829	35.00
19.6441	27.00
19.7054	27.00
19.7667	27.00
19.828	33.00
19.8892	19.00
19.9505	37.00
20.0118	22.00
20.0731	26.00
20.1343	16.00
20.1956	27.00
20.2569	28.00
20.3181	22.00
20.3794	36.00
20.4407	21.00
20.502	21.00
20.5632	29.00
20.6245	43.00
20.6858	26.00
20.7471	35.00
20.8083	43.00
20.8696	31.00
20.9309	47.00
20.9921	27.00
21.0534	27.00
21.1147	44.00
21.176	27.00
21.2372	21.00
21.2985	28.00
21.3598	37.00
21.4211	32.00
21.4823	30.00
21.5436	30.00
21.6049	35.00
21.6661	30.00
21.7274	19.00
21.7887	27.00
21.85	18.00
21.9112	26.00
21.9725	22.00
22.0338	22.00
22.0951	24.00
22.1563	29.00
22.2176	30.00
22.2789	29.00
22.3401	25.00
22.4014	23.00
22.4627	27.00
22.524	21.00
22.5852	35.00
22.6465	37.00
22.7078	37.00
22.769	44.00
22.8303	139.00
22.8916	114.00
22.9529	50.00
23.0141	25.00
23.0754	29.00
23.1367	21.00
23.198	28.00
23.2592	37.00
23.3205	35.00
23.3818	40.00
23.443	21.00
23.5043	29.00
23.5656	35.00
23.6269	38.00
23.6881	33.00
23.7494	36.00
23.8107	56.00
23.872	50.00
23.9332	62.00
23.9945	47.00
24.0558	41.00
24.117	48.00
24.1783	54.00
24.2396	64.00
24.3009	55.00
24.3621	101.00
24.4234	129.00
24.4847	260.00
24.546	415.00
24.6072	471.00
24.6685	487.00
24.7298	361.00
24.791	238.00
24.8523	122.00
24.9136	104.00
24.9749	80.00
25.0361	78.00
25.0974	65.00
25.1587	70.00
25.22	59.00
25.2812	63.00
25.3425	55.00
25.4038	91.00
25.465	80.00
25.5263	63.00
25.5876	52.00
25.6489	32.00
25.7101	38.00
25.7714	35.00
25.8327	31.00
25.894	25.00
25.9552	28.00
26.0165	23.00
26.0778	24.00
26.139	24.00
26.2003	36.00
26.2616	26.00
26.3229	45.00
26.3841	33.00
26.4454	23.00
26.5067	22.00
26.5679	29.00
26.6292	28.00
26.6905	31.00
26.7518	24.00
26.813	22.00
26.8743	24.00
26.9356	21.00
26.9969	21.00
27.0581	32.00
27.1194	21.00
27.1807	44.00
27.2419	22.00
27.3032	22.00
27.3645	24.00
27.4258	18.00
27.487	20.00
27.5483	33.00
27.6096	49.00
27.6709	74.00
27.7321	32.00
27.7934	16.00
27.8547	26.00
27.9159	19.00
27.9772	29.00
28.0385	26.00
28.0998	21.00
28.161	22.00
28.2223	14.00
28.2836	26.00
28.3449	18.00
28.4061	23.00
28.4674	30.00
28.5287	36.00
28.5899	34.00
28.6512	32.00
28.7125	20.00
28.7738	26.00
28.835	19.00
28.8963	20.00
28.9576	16.00
29.0189	24.00
29.0801	19.00
29.1414	25.00
29.2027	19.00
29.2639	30.00
29.3252	20.00
29.3865	32.00
29.4478	24.00
29.509	34.00
29.5703	28.00
29.6316	38.00
29.6928	36.00
29.7541	48.00
29.8154	94.00
29.8767	113.00
29.9379	79.00
29.9992	46.00
30.0605	40.00
30.1218	46.00
30.183	58.00
30.2443	45.00
30.3056	64.00
30.3668	83.00
30.4281	47.00
30.4894	33.00
30.5507	30.00
30.6119	12.00
30.6732	17.00
30.7345	21.00
30.7958	25.00
30.857	42.00
30.9183	50.00
30.9796	41.00
31.0408	15.00
31.1021	17.00
31.1634	26.00
31.2247	19.00
31.2859	21.00
31.3472	14.00
31.4085	26.00
31.4698	20.00
31.531	22.00
31.5923	20.00
31.6536	22.00
31.7148	36.00
31.7761	24.00
31.8374	26.00
31.8987	22.00
31.9599	30.00
32.0212	28.00
32.0825	22.00
32.1438	26.00
32.205	44.00
32.2663	237.00
32.3276	100.00
32.3888	65.00
32.4501	29.00
32.5114	18.00
32.5727	23.00
32.6339	29.00
32.6952	21.00
32.7565	29.00
32.8178	31.00
32.879	24.00
32.9403	24.00
33.0016	27.00
33.0628	54.00
33.1241	39.00
33.1854	34.00
33.2467	21.00
33.3079	23.00
33.3692	18.00
33.4305	36.00
33.4917	31.00
33.553	30.00
33.6143	45.00
33.6756	40.00
33.7368	46.00
33.7981	39.00
33.8594	37.00
33.9207	31.00
33.9819	37.00
34.0432	42.00
34.1045	39.00
34.1657	47.00
34.227	42.00
34.2883	44.00
34.3496	46.00
34.4108	39.00
34.4721	60.00
34.5334	55.00
34.5947	61.00
34.6559	67.00
34.7172	50.00
34.7785	54.00
34.8397	71.00
34.901	77.00
34.9623	82.00
35.0236	91.00
35.0848	99.00
35.1461	96.00
35.2074	87.00
35.2687	121.00
35.3299	163.00
35.3912	220.00
35.4525	452.00
35.5137	519.00
35.575	454.00
35.6363	488.00
35.6976	343.00
35.7588	302.00
35.8201	173.00
35.8814	126.00
35.9427	100.00
36.0039	98.00
36.0652	92.00
36.1265	67.00
36.1877	72.00
36.249	68.00
36.3103	67.00
36.3716	85.00
36.4328	194.00
36.4941	238.00
36.5554	193.00
36.6166	117.00
36.6779	89.00
36.7392	82.00
36.8005	63.00
36.8617	50.00
36.923	63.00
36.9843	68.00
37.0456	66.00
37.1068	69.00
37.1681	97.00
37.2294	82.00
37.2906	77.00
37.3519	62.00
37.4132	54.00
37.4745	61.00
37.5357	70.00
37.597	57.00
37.6583	56.00
37.7196	59.00
37.7808	41.00
37.8421	42.00
37.9034	26.00
37.9646	34.00
38.0259	35.00
38.0872	29.00
38.1485	32.00
38.2097	61.00
38.271	83.00
38.3323	54.00
38.3936	47.00
38.4548	40.00
38.5161	38.00
38.5774	36.00
38.6386	28.00
38.6999	44.00
38.7612	51.00
38.8225	85.00
38.8837	51.00
38.945	29.00
39.0063	35.00
39.0676	38.00
39.1288	50.00
39.1901	49.00
39.2514	35.00
39.3126	30.00
39.3739	46.00
39.4352	35.00
39.4965	39.00
39.5577	52.00
39.619	141.00
39.6803	76.00
39.7416	105.00
39.8028	38.00
39.8641	47.00
39.9254	65.00
39.9866	121.00
40.0479	67.00
40.1092	77.00
40.1705	46.00
40.2317	50.00
40.293	51.00
40.3543	60.00
40.4155	58.00
40.4768	43.00
40.5381	42.00
40.5994	53.00
40.6606	48.00
40.7219	52.00
40.7832	70.00
40.8445	66.00
40.9057	51.00
40.967	62.00
41.0283	65.00
41.0895	46.00
41.1508	43.00
41.2121	49.00
41.2734	61.00
41.3346	61.00
41.3959	65.00
41.4572	82.00
41.5185	82.00
41.5797	95.00
41.641	125.00
41.7023	155.00
41.7635	128.00
41.8248	132.00
41.8861	125.00
41.9474	129.00
42.0086	142.00
42.0699	112.00
42.1312	101.00
42.1925	64.00
42.2537	80.00
42.315	78.00
42.3763	78.00
42.4375	73.00
42.4988	75.00
42.5601	75.00
42.6214	43.00
42.6826	47.00
42.7439	53.00
42.8052	48.00
42.8665	50.00
42.9277	40.00
42.989	60.00
43.0503	68.00
43.1115	43.00
43.1728	45.00
43.2341	53.00
43.2954	43.00
43.3566	45.00
43.4179	37.00
43.4792	46.00
43.5404	26.00
43.6017	30.00
43.663	33.00
43.7243	27.00
43.7855	35.00
43.8468	41.00
43.9081	25.00
43.9694	41.00
44.0306	26.00
44.0919	24.00
44.1532	27.00
44.2144	38.00
44.2757	44.00
44.337	42.00
44.3983	46.00
44.4595	54.00
44.5208	44.00
44.5821	30.00
44.6434	33.00
44.7046	34.00
44.7659	38.00
44.8272	31.00
44.8884	44.00
44.9497	33.00
45.011	25.00
45.0723	39.00
45.1335	28.00
45.1948	45.00
45.2561	27.00
45.3174	30.00
45.3786	27.00
45.4399	20.00
45.5012	21.00
45.5624	21.00
45.6237	18.00
45.685	28.00
45.7463	21.00
45.8075	25.00
45.8688	27.00
45.9301	27.00
45.9914	30.00
46.0526	33.00
46.1139	26.00
46.1752	28.00
46.2364	20.00
46.2977	21.00
46.359	24.00
46.4203	30.00
46.4815	41.00
46.5428	26.00
46.6041	20.00
46.6654	39.00
46.7266	24.00
46.7879	26.00
46.8492	30.00
46.9104	28.00
46.9717	14.00
47.033	21.00
47.0943	30.00
47.1555	32.00
47.2168	29.00
47.2781	32.00
47.3393	15.00
47.4006	30.00
47.4619	27.00
47.5232	22.00
47.5844	33.00
47.6457	28.00
47.707	19.00
47.7683	25.00
47.8295	36.00
47.8908	35.00
47.9521	27.00
48.0133	31.00
48.0746	29.00
48.1359	42.00
48.1972	35.00
48.2584	32.00
48.3197	40.00
48.381	51.00
48.4423	35.00
48.5035	39.00
48.5648	36.00
48.6261	31.00
48.6873	33.00
48.7486	34.00
48.8099	40.00
48.8712	40.00
48.9324	26.00
48.9937	29.00
49.055	46.00
49.1163	41.00
49.1775	43.00
49.2388	48.00
49.3001	49.00
49.3613	43.00
49.4226	43.00
49.4839	41.00
49.5452	51.00
49.6064	63.00
49.6677	67.00
49.729	84.00
49.7903	78.00
49.8515	76.00
49.9128	73.00
49.9741	61.00
50.0353	50.00
50.0966	54.00
50.1579	71.00
50.2192	77.00
50.2804	85.00
50.3417	74.00
50.403	63.00
50.4642	54.00
50.5255	45.00
50.5868	56.00
50.6481	47.00
50.7093	47.00
50.7706	46.00
50.8319	64.00
50.8932	71.00
50.9544	42.00
51.0157	59.00
51.077	59.00
51.1382	42.00
51.1995	66.00
51.2608	81.00
51.3221	75.00
51.3833	76.00
51.4446	76.00
51.5059	57.00
51.5672	57.00
51.6284	51.00
51.6897	48.00
51.751	48.00
51.8122	51.00
51.8735	56.00
51.9348	50.00
51.9961	58.00
52.0573	64.00
52.1186	111.00
52.1799	311.00
52.2412	124.00
52.3024	156.00
52.3637	119.00
52.425	88.00
52.4862	146.00
52.5475	73.00
52.6088	89.00
52.6701	84.00
52.7313	99.00
52.7926	73.00
52.8539	66.00
52.9152	64.00
52.9764	63.00
53.0377	47.00
53.099	49.00
53.1602	50.00
53.2215	63.00
53.2828	45.00
53.3441	48.00
53.4053	69.00
53.4666	65.00
53.5279	50.00
53.5892	45.00
53.6504	48.00
53.7117	41.00
53.773	55.00
53.8342	47.00
53.8955	41.00
53.9568	45.00
54.0181	55.00
54.0793	53.00
54.1406	49.00
54.2019	43.00
54.2631	37.00
54.3244	48.00
54.3857	47.00
54.447	38.00
54.5082	45.00
54.5695	40.00
54.6308	29.00
54.6921	35.00
54.7533	52.00
54.8146	96.00
54.8759	64.00
54.9371	60.00
54.9984	54.00
55.0597	36.00
55.121	49.00
55.1822	34.00
55.2435	39.00
55.3048	32.00
55.3661	38.00
55.4273	36.00
55.4886	31.00
55.5499	43.00
55.6111	47.00
55.6724	49.00
55.7337	45.00
55.795	53.00
55.8562	34.00
55.9175	34.00
55.9788	52.00
56.0401	88.00
56.1013	78.00
56.1626	59.00
56.2239	74.00
56.2851	43.00
56.3464	51.00
56.4077	38.00
56.469	48.00
56.5302	59.00
56.5915	63.00
56.6528	66.00
56.7141	95.00
56.7753	86.00
56.8366	63.00
56.8979	96.00
56.9591	96.00
57.0204	74.00
57.0817	53.00
57.143	81.00
57.2042	67.00
57.2655	43.00
57.3268	37.00
57.388	36.00
57.4493	35.00
57.5106	41.00
57.5719	36.00
57.6331	36.00
57.6944	38.00
57.7557	42.00
57.817	40.00
57.8782	53.00
57.9395	48.00
58.0008	56.00
58.062	65.00
58.1233	27.00
58.1846	45.00
58.2459	50.00
58.3071	44.00
58.3684	62.00
58.4297	59.00
58.491	49.00
58.5522	76.00
58.6135	97.00
58.6748	67.00
58.736	76.00
58.7973	80.00
58.8586	92.00
58.9199	93.00
58.9811	143.00
59.0424	142.00
59.1037	152.00
59.165	170.00
59.2262	136.00
59.2875	108.00
59.3488	104.00
59.41	79.00
59.4713	81.00
59.5326	75.00
59.5939	73.00
59.6551	68.00
59.7164	82.00
59.7777	90.00
59.839	109.00
59.9002	121.00
59.9615	174.00
60.0228	149.00
60.084	143.00
60.1453	141.00
60.2066	136.00
60.2679	133.00
60.3291	155.00
60.3904	116.00
60.4517	111.00
60.513	104.00
60.5742	106.00
60.6355	105.00
60.6968	102.00
60.758	103.00
60.8193	111.00
60.8806	102.00
60.9419	99.00
61.0031	124.00
61.0644	96.00
61.1257	105.00
61.1869	111.00
61.2482	102.00
61.3095	100.00
61.3708	125.00
61.432	98.00
61.4933	117.00
61.5546	104.00
61.6159	108.00
61.6771	114.00
61.7384	102.00
61.7997	104.00
61.8609	161.00
61.9222	98.00
61.9835	93.00
62.0448	115.00
62.106	83.00
62.1673	78.00
62.2286	83.00
62.2899	90.00
62.3511	76.00
62.4124	98.00
62.4737	105.00
62.5349	108.00
62.5962	153.00
62.6575	245.00
62.7188	144.00
62.78	154.00
62.8413	159.00
62.9026	83.00
62.9639	66.00
63.0251	76.00
63.0864	69.00
63.1477	59.00
63.2089	57.00
63.2702	64.00
63.3315	59.00
63.3928	63.00
63.454	69.00
63.5153	61.00
63.5766	57.00
63.6379	56.00
63.6991	65.00
63.7604	56.00
63.8217	53.00
63.8829	36.00
63.9442	58.00
64.0055	45.00
64.0668	49.00
64.128	58.00
64.1893	68.00
64.2506	47.00
64.3118	65.00
64.3731	59.00
64.4344	64.00
64.4957	46.00
64.5569	43.00
64.6182	49.00
64.6795	55.00
64.7408	63.00
64.802	48.00
64.8633	37.00
64.9246	55.00
64.9858	44.00
65.0471	32.00
65.1084	33.00
65.1697	40.00
65.2309	37.00
65.2922	32.00
65.3535	40.00
65.4148	37.00
65.476	43.00
65.5373	45.00
65.5986	37.00
65.6598	48.00
65.7211	64.00
65.7824	53.00
65.8437	43.00
65.9049	48.00
65.9662	48.00
66.0275	41.00
66.0888	45.00
66.15	34.00
66.2113	40.00
66.2726	46.00
66.3338	49.00
66.3951	46.00
66.4564	52.00
66.5177	60.00
66.5789	42.00
66.6402	48.00
66.7015	41.00
66.7628	38.00
66.824	69.00
66.8853	57.00
66.9466	91.00
67.0078	58.00
67.0691	56.00
67.1304	67.00
67.1917	48.00
67.2529	52.00
67.3142	75.00
67.3755	42.00
67.4368	41.00
67.498	38.00
67.5593	45.00
67.6206	40.00
67.6818	32.00
67.7431	33.00
67.8044	34.00
67.8657	39.00
67.9269	42.00
67.9882	31.00
68.0495	36.00
68.1107	41.00
68.172	31.00
68.2333	42.00
68.2946	37.00
68.3558	39.00
68.4171	42.00
68.4784	34.00
68.5397	48.00
68.6009	33.00
68.6622	36.00
68.7235	45.00
68.7847	37.00
68.846	29.00
68.9073	36.00
68.9686	47.00
69.0298	38.00
69.0911	32.00
69.1524	35.00
69.2137	42.00
69.2749	34.00
69.3362	45.00
69.3975	84.00
69.4587	85.00
69.52	48.00
69.5813	75.00
69.6426	93.00
69.7038	52.00
69.7651	56.00
69.8264	50.00
69.8877	56.00
69.9489	40.00
70.0102	53.00